# OpenSignals Text File Format. Version 1
# {"00:07:80:0F:2F:AD": {"position": 0, "device": "biosignalsplux", "device name": "00:07:80:0F:2F:AD", "device connection": "BTH00:07:80:0F:2F:AD", "sampling rate": 1000, "resolution": [16, 16, 16, 16], "firmware version": 775, "comments": "", "keywords": "", "mode": 0, "sync interval": 2, "date": "2021-10-14", "time": "15:46:54.423", "channels": [1, 2, 3, 4], "sensor": ["XYZ", "XYZ", "XYZ", "FSRIII"], "label": ["CH1", "CH2", "CH3", "CH4"], "column": ["nSeq", "DI", "CH1", "CH2", "CH3", "CH4"], "special": [{"SpO2": [80, 40, 5, 4, 3, 3]}, {"SpO2": [80, 40, 5, 4, 3, 3]}, {"SpO2": [80, 40, 5, 4, 3, 3]}, {"SpO2": [80, 40, 5, 4, 3, 3]}, {"SpO2": [80, 40, 5, 4, 3, 3]}, {"SpO2": [80, 40, 5, 4, 3, 3]}, {"SpO2": [80, 40, 5, 4, 3, 3]}, {"SpO2": [80, 40, 5, 4, 3, 3]}], "digital IO": [0, 1], "sleeve color": ["white", "white", "white", "black"], "convertedValues": 0}, "88:6B:0F:AB:F7:DB": {"position": 1, "device": "musclebanplux", "device name": "88:6B:0F:AB:F7:DB", "device connection": "BTH88:6B:0F:AB:F7:DB", "sampling rate": 1000, "resolution": [16, 16, 16, 16], "firmware version": 1026, "comments": "", "keywords": "", "mode": 0, "sync interval": 2, "date": "2021-10-14", "time": "15:46:54.423", "channels": [1, 2, 3, 4], "sensor": ["gEMG", "gACC", "gACC", "gACC"], "label": ["EMG", "ACC_X", "ACC_Y", "ACC_Z"], "column": ["nSeq", "EMG", "ACC_X", "ACC_Y", "ACC_Z"], "special": [{}, {}, {}, {}], "digital IO": [], "convertedValues": 0}, "88:6B:0F:AB:F8:7D": {"position": 2, "device": "musclebanplux", "device name": "88:6B:0F:AB:F8:7D", "device connection": "BTH88:6B:0F:AB:F8:7D", "sampling rate": 1000, "resolution": [16, 16, 16, 16], "firmware version": 1026, "comments": "", "keywords": "", "mode": 0, "sync interval": 2, "date": "2021-10-14", "time": "15:46:54.423", "channels": [1, 2, 3, 4], "sensor": ["gEMG", "gACC", "gACC", "gACC"], "label": ["EMG", "ACC_X", "ACC_Y", "ACC_Z"], "column": ["nSeq", "EMG", "ACC_X", "ACC_Y", "ACC_Z"], "special": [{}, {}, {}, {}], "digital IO": [], "convertedValues": 0}}
# EndOfHeader
3806	0	31546	28988	36508	8725	2608	32240	38888	27100	31856	0	31008	38824	30120	37384	
3807	0	31536	28980	36498	8642	2609	32176	38872	27112	31824	1	32352	38872	29676	37248	
3808	0	31544	28984	36524	8542	2610	32496	38872	27112	31824	2	32480	38900	29648	37312	
3809	0	31540	28980	36524	8768	2611	32352	38876	27100	31824	3	32864	38920	29636	37296	
3810	0	31536	28974	36524	8566	2612	32256	38856	27144	31824	4	32848	38924	29624	37328	
3811	0	31536	28976	36528	8760	2613	32288	38888	27184	31752	5	33040	38924	29624	37328	
3812	0	31528	28972	36530	8843	2614	32336	38888	27184	31752	6	33360	38872	29600	37304	
3813	0	31516	28980	36516	8872	2615	32288	38872	27208	31784	7	33408	38908	29628	37304	
3814	0	31508	28974	36524	8690	2616	32144	38840	27232	31792	8	33664	38916	29624	37320	
3815	0	31528	28968	36540	8938	2617	32272	38820	27184	31808	9	33120	38872	29632	37280	
3816	0	31520	28976	36568	8934	2618	32272	38792	27224	31808	10	32704	38872	29632	37280	
3817	0	31506	28972	36548	9001	2619	32208	38792	27224	31808	11	32640	38928	29612	37312	
3818	0	31512	28966	36546	8879	2620	32208	38804	27224	31784	12	32720	38916	29612	37304	
3819	0	31508	28972	36520	9238	2621	32208	38840	27184	31800	13	32560	38912	29640	37320	
3820	0	31504	28980	36508	9444	2622	32080	38804	27216	31792	14	32400	38896	29636	37336	
3821	0	31512	28984	36524	9483	2623	32160	38800	27216	31792	15	32320	38920	29656	37280	
3822	0	31512	28996	36548	9409	2624	32352	38800	27216	31792	16	32032	38920	29656	37280	
3823	0	31512	29008	36548	9382	2625	32208	38772	27192	31824	17	32096	38904	29664	37264	
3824	0	31516	29018	36548	9484	2626	32080	38768	27264	31808	18	32272	38912	29640	37344	
3825	0	31520	29016	36536	9822	2627	31968	38796	27240	31800	19	32528	38892	29648	37344	
3826	0	31536	29024	36538	9415	2628	32144	38792	27228	31816	20	32720	38888	29680	37352	
3827	0	31536	29012	36535	9808	2629	32288	38792	27228	31816	21	32256	38888	29680	37352	
3828	0	31560	29013	36528	9494	2630	32208	38812	27248	31832	22	32256	38868	29672	37320	
3829	0	31560	29005	36542	9784	2631	32352	38764	27272	31808	23	32672	38880	29648	37328	
3830	0	31556	29028	36564	9808	2632	32496	38752	27264	31872	24	33024	38828	29644	37304	
3831	0	31568	29008	36554	9688	2633	32400	38772	27228	31840	25	32928	38800	29620	37360	
3832	0	31560	29004	36560	9396	2634	32432	38772	27228	31840	26	33216	38880	29648	37320	
3833	0	31564	29012	36556	9238	2635	32352	38756	27228	31856	27	33120	38880	29648	37320	
3834	0	31560	29016	36554	9432	2636	32112	38788	27224	31856	28	32784	38864	29632	37280	
3835	0	31560	29024	36552	9416	2637	32096	38840	27224	31840	29	32800	38852	29664	37296	
3836	0	31560	29020	36560	9649	2638	32016	38764	27236	31856	30	32416	38836	29608	37336	
3837	0	31572	29032	36544	9784	2639	32272	38764	27236	31856	31	32656	38888	29612	37296	
3838	0	31572	29032	36554	9914	2640	32304	38812	27192	31856	32	32752	38888	29612	37296	
3839	0	31576	29033	36548	9813	2641	32208	38776	27184	31840	33	33008	38852	29632	37312	
3840	0	31584	29036	36540	9909	2642	32144	38792	27232	31824	34	32624	38832	29648	37368	
3841	0	31586	29025	36540	9840	2643	32240	38796	27272	31840	35	32272	38872	29672	37320	
3842	0	31584	29032	36552	10074	2644	32256	38796	27272	31840	36	32448	38860	29612	37280	
3843	0	31584	29032	36552	10336	2645	32048	38840	27232	31840	37	32624	38904	29664	37328	
3844	0	31592	29024	36523	10238	2646	32144	38768	27240	31832	38	32576	38904	29664	37328	
3845	0	31576	29040	36524	10311	2647	32080	38820	27192	31848	39	32864	38908	29648	37296	
3846	0	31564	29044	36542	10242	2648	32256	38832	27224	31880	40	32528	38880	29664	37328	
3847	0	31572	29050	36522	10480	2649	32416	38832	27224	31880	41	32416	38836	29656	37304	
3848	0	31568	29060	36520	10508	2650	32336	38856	27224	31832	42	32320	38908	29664	37336	
3849	0	31560	29063	36528	10705	2651	32304	38848	27224	31872	43	32480	38908	29664	37336	
3850	0	31552	29060	36526	10682	2652	32336	38876	27236	31840	44	32416	38924	29680	37360	
3851	0	31552	29056	36512	10582	2653	32304	38860	27272	31880	45	32560	38900	29696	37320	
3852	0	31538	29056	36520	10607	2654	32496	38860	27272	31880	46	32592	38892	29648	37304	
3853	0	31548	29044	36496	10584	2655	32352	38840	27228	31896	47	32672	38916	29664	37296	
3854	0	31544	29040	36512	10789	2656	32176	38872	27280	31888	48	32688	38936	29688	37304	
3855	0	31544	29040	36508	10282	2657	32128	38864	27260	31864	49	32448	38936	29688	37304	
3856	0	31540	29048	36513	10662	2658	31984	38884	27240	31840	50	31856	38952	29656	37336	
3857	0	31532	29054	36520	10705	2659	32192	38884	27240	31840	51	32176	38916	29704	37296	
3858	0	31524	29054	36512	11078	2660	32112	38896	27240	31872	52	32112	38944	29720	37336	
3859	0	31533	29060	36512	11042	2661	32240	38868	27256	31920	53	32640	38988	29712	37304	
3860	0	31516	29060	36481	10984	2662	32128	38868	27288	31920	54	32592	38988	29712	37304	
3861	0	31508	29066	36480	11159	2663	32256	38884	27296	31872	55	32528	38980	29744	37312	
3862	0	31496	29052	36460	11261	2664	32272	38884	27296	31872	56	32768	38944	29720	37336	
3863	0	31496	29048	36480	11266	2665	32176	38828	27304	31872	57	33040	38972	29728	37312	
3864	0	31496	29056	36480	11112	2666	32288	38884	27292	31904	58	32880	38984	29744	37328	
3865	0	31492	29068	36452	11133	2667	32272	38876	27296	31888	59	32848	39024	29752	37304	
3866	0	31477	29064	36470	10740	2668	32080	38892	27320	31920	60	32560	39024	29752	37304	
3867	0	31492	29052	36456	10982	2669	32256	38892	27320	31920	61	32560	39000	29744	37312	
3868	0	31488	29040	36469	10986	2670	32160	38884	27336	31880	62	32304	38992	29768	37336	
3869	0	31473	29034	36480	10817	2671	32352	38856	27312	31920	63	32224	38980	29784	37304	
3870	0	31472	29036	36466	10974	2672	32400	38856	27280	31952	64	32496	38960	29768	37296	
3871	0	31488	29048	36472	10938	2673	32144	38864	27328	31952	65	32304	38960	29768	37296	
3872	0	31476	29056	36488	10928	2674	32464	38864	27328	31952	66	32176	38988	29776	37312	
3873	0	31476	29056	36484	11288	2675	32320	38888	27312	31920	67	32560	39000	29784	37272	
3874	0	31488	29058	36484	11468	2676	32512	38888	27336	31904	68	32592	39008	29804	37320	
3875	0	31488	29064	36504	11101	2677	32208	38840	27320	31928	69	32736	39032	29800	37328	
3876	0	31488	29060	36496	11120	2678	32080	38868	27280	31912	70	32560	39004	29808	37352	
3877	0	31504	29064	36516	11079	2679	32192	38868	27280	31912	71	32656	39004	29808	37352	
3878	0	31508	29068	36489	11060	2680	32128	38884	27344	31888	72	32496	38992	29800	37336	
3879	0	31504	29068	36492	10884	2681	32192	38868	27364	31896	73	32480	38988	29840	37344	
3880	0	31520	29056	36480	10770	2682	31936	38848	27400	31904	74	32768	38980	29820	37296	
3881	0	31508	29064	36456	10536	2683	31968	38852	27424	31920	75	32912	39020	29872	37272	
3882	0	31504	29070	36472	10611	2684	32128	38852	27424	31920	76	33024	39020	29872	37272	
3883	0	31512	29068	36482	10389	2685	32240	38848	27392	31936	77	33136	39004	29820	37320	
3884	0	31504	29080	36488	10477	2686	32272	38864	27364	31920	78	33200	38984	29792	37280	
3885	0	31504	29068	36454	10616	2687	32000	38876	27356	31920	79	33056	38980	29832	37320	
3886	0	31498	29076	36437	10368	2688	32416	38852	27336	31936	80	32784	38976	29804	37264	
3887	0	31504	29088	36442	10353	2689	32576	38852	27336	31936	81	32768	39008	29828	37280	
3888	0	31518	29080	36448	10446	2690	32464	38848	27320	31888	82	33008	39008	29828	37280	
3889	0	31509	29080	36460	10572	2691	32400	38864	27352	31832	83	33360	38964	29808	37248	
3890	0	31528	29088	36448	10418	2692	32272	38856	27296	31896	84	33296	38976	29792	37296	
3891	0	31520	29096	36420	10474	2693	32272	38864	27272	31920	85	33056	38960	29784	37280	
3892	0	31536	29084	36412	10657	2694	32480	38864	27272	31920	86	32656	38980	29752	37272	
3893	0	31544	29097	36404	10580	2695	32128	38872	27304	31904	87	32448	38980	29752	37272	
3894	0	31548	29098	36416	10746	2696	32272	38856	27296	31896	88	32288	38976	29784	37272	
3895	0	31538	29108	36424	10895	2697	32048	38840	27328	31888	89	32016	38948	29792	37280	
3896	0	31544	29102	36434	10827	2698	32144	38864	27312	31896	90	32064	38964	29800	37264	
3897	0	31548	29105	36442	10640	2699	32240	38864	27312	31896	91	31904	38952	29768	37264	
3898	0	31548	29112	36440	10412	2700	32096	38824	27348	31912	92	32032	38952	29768	37264	
3899	0	31560	29128	36472	10440	2701	32128	38840	27272	31856	93	32448	38944	29760	37264	
3900	0	31552	29128	36472	10439	2702	32112	38852	27288	31864	94	32304	38908	29744	37256	
3901	0	31544	29122	36464	10413	2703	32192	38828	27288	31864	95	32384	38908	29752	37256	
3902	0	31544	29122	36472	10681	2704	32272	38828	27288	31864	96	32528	38988	29760	37288	
3903	0	31544	29122	36474	10696	2705	32304	38836	27304	31864	97	32672	38972	29736	37280	
3904	0	31548	29110	36480	10664	2706	32144	38784	27280	31904	98	32848	38972	29736	37280	
3905	0	31552	29124	36460	10297	2707	32016	38832	27264	31864	99	33040	38916	29720	37256	
3906	0	31556	29132	36464	10525	2708	32320	38776	27280	31896	100	32960	38968	29744	37272	
3907	0	31552	29130	36472	10275	2709	32416	38776	27280	31896	101	32976	38944	29728	37232	
3908	0	31552	29120	36468	9594	2710	32480	38816	27256	31872	102	32976	38960	29688	37336	
3909	0	31548	29121	36480	9884	2711	32400	38808	27248	31888	103	32560	38960	29688	37336	
3910	0	31547	29116	36480	10164	2712	32272	38792	27236	31848	104	32464	38964	29728	37288	
3911	0	31544	29116	36512	10264	2713	32416	38784	27236	31832	105	32768	38872	29704	37256	
3912	0	31536	29112	36510	10003	2714	32320	38784	27236	31832	106	32672	38908	29688	37304	
3913	0	31532	29113	36516	10122	2715	32288	38764	27248	31840	107	32880	38936	29688	37320	
3914	0	31534	29096	36520	10229	2716	32128	38800	27236	31856	108	32576	38928	29712	37304	
3915	0	31546	29082	36528	10424	2717	32272	38804	27256	31840	109	32368	38928	29712	37304	
3916	0	31546	29080	36536	10158	2718	31952	38804	27256	31840	110	32240	38944	29736	37280	
3917	0	31532	29096	36544	10122	2719	32224	38772	27236	31872	111	31984	38904	29688	37344	
3918	0	31548	29100	36536	10221	2720	32576	38828	27236	31832	112	32240	38864	29628	37296	
3919	0	31548	29096	36540	10116	2721	32096	38824	27216	31864	113	32640	38908	29664	37288	
3920	0	31544	29096	36544	10232	2722	32064	38804	27236	31872	114	32640	38908	29664	37288	
3921	0	31544	29088	36520	10714	2723	32256	38804	27236	31872	115	32272	38924	29664	37224	
3922	0	31540	29090	36520	10677	2724	32128	38824	27236	31832	116	32432	38880	29688	37288	
3923	0	31552	29082	36524	10893	2725	32224	38820	27224	31840	117	32528	38908	29648	37336	
3924	0	31552	29072	36512	10792	2726	32080	38792	27248	31848	118	32800	38916	29636	37296	
3925	0	31564	29072	36500	11018	2727	32240	38784	27260	31904	119	32768	38880	29664	37272	
3926	0	31572	29060	36504	10664	2728	32256	38784	27260	31904	120	32624	38880	29664	37272	
3927	0	31576	29052	36492	10952	2729	32432	38820	27236	31872	121	32304	38904	29640	37280	
3928	0	31568	29060	36488	10821	2730	32432	38840	27232	31840	122	32464	38844	29672	37336	
3929	0	31578	29066	36500	10941	2731	32496	38796	27216	31856	123	32528	38896	29664	37304	
3930	0	31584	29052	36508	10790	2732	32336	38812	27228	31816	124	32368	38896	29696	37344	
3931	0	31584	29044	36516	10905	2733	32384	38812	27228	31816	125	32432	38896	29696	37344	
3932	0	31592	29040	36532	10905	2734	32352	38856	27248	31856	126	32768	38900	29664	37296	
3933	0	31588	29030	36536	10810	2735	32224	38840	27236	31856	127	32832	38888	29704	37280	
3934	0	31580	29042	36556	10925	2736	32144	38840	27240	31872	128	32640	38852	29688	37320	
3935	0	31588	29040	36578	10966	2737	32144	38872	27240	31888	129	32528	38896	29680	37272	
3936	0	31600	29028	36584	10725	2738	32016	38872	27240	31888	130	32352	38916	29664	37296	
3937	0	31597	29024	36584	10742	2739	32224	38840	27244	31880	131	32336	38916	29664	37296	
3938	0	31612	29012	36560	10794	2740	32224	38816	27236	31856	132	32496	38880	29680	37280	
3939	0	31612	29022	36548	10793	2741	32272	38832	27244	31840	133	32736	38900	29656	37344	
3940	0	31612	29024	36546	10839	2742	32192	38832	27264	31824	134	32784	38896	29696	37288	
3941	0	31628	29024	36528	10666	2743	32256	38832	27264	31824	135	32288	38896	29680	37320	
3942	0	31624	29024	36542	10668	2744	32272	38832	27264	31856	136	32288	38896	29680	37320	
3943	0	31632	29016	36536	10528	2745	32176	38792	27280	31848	137	32416	38880	29688	37264	
3944	0	31641	29024	36524	10697	2746	32160	38840	27312	31832	138	32640	38896	29728	37312	
3945	0	31652	29020	36522	10736	2747	32336	38792	27296	31920	139	32528	38844	29704	37248	
3946	0	31660	29012	36504	10602	2748	32416	38792	27296	31920	140	32672	38908	29712	37312	
3947	0	31660	29024	36516	10768	2749	32304	38812	27272	31928	141	33136	38896	29712	37248	
3948	0	31672	29022	36525	10761	2750	32384	38832	27244	31896	142	33504	38896	29712	37248	
3949	0	31674	29020	36514	10819	2751	32352	38852	27288	31912	143	32992	38844	29720	37256	
3950	0	31668	29024	36504	10408	2752	32304	38840	27264	31904	144	33152	38896	29696	37304	
3951	0	31676	29020	36513	10302	2753	32080	38840	27264	31904	145	33056	38896	29712	37320	
3952	0	31684	29024	36496	10374	2754	32016	38848	27256	31840	146	32480	38852	29720	37256	
3953	0	31684	29032	36496	10007	2755	32000	38856	27244	31880	147	32272	38852	29720	37256	
3954	0	31696	29034	36484	10188	2756	32176	38836	27248	31936	148	32224	38916	29696	37296	
3955	0	31700	29034	36480	10276	2757	32064	38812	27268	31864	149	32432	38916	29656	37280	
3956	0	31692	29028	36496	10266	2758	32192	38812	27268	31864	150	32736	38908	29680	37264	
3957	0	31697	29032	36488	10288	2759	32256	38832	27312	31904	151	32816	38932	29680	37320	
3958	0	31694	29036	36472	10364	2760	32304	38828	27248	31872	152	32752	38852	29720	37312	
3959	0	31689	29036	36460	10517	2761	32192	38768	27256	31920	153	32992	38852	29720	37312	
3960	0	31690	29032	36464	10425	2762	31984	38840	27272	31928	154	32784	38928	29688	37304	
3961	0	31696	29049	36480	10641	2763	32176	38840	27272	31928	155	31936	38928	29696	37216	
3962	0	31682	29048	36484	10738	2764	32240	38852	27264	31944	156	31504	38944	29712	37264	
3963	0	31672	29057	36472	10469	2765	32336	38792	27256	31928	157	32176	38960	29680	37312	
3964	0	31669	29060	36480	10796	2766	32336	38772	27280	31952	158	32640	38960	29680	37312	
3965	0	31668	29048	36488	10698	2767	32320	38784	27280	31920	159	32768	38928	29704	37240	
3966	0	31672	29056	36496	10689	2768	32128	38784	27280	31920	160	32640	38932	29688	37256	
3967	0	31668	29048	36506	10606	2769	32288	38804	27296	31936	161	32480	38932	29672	37296	
3968	0	31658	29052	36521	10804	2770	32560	38752	27268	31920	162	32688	38900	29672	37288	
3969	0	31658	29052	36520	10861	2771	32480	38752	27272	31904	163	32640	38916	29688	37256	
3970	0	31650	29053	36524	11060	2772	32272	38764	27236	31952	164	32576	38916	29688	37256	
3971	0	31634	29048	36526	10706	2773	32320	38764	27236	31952	165	32624	38908	29712	37280	
3972	0	31632	29048	36533	10804	2774	32384	38752	27304	31928	166	32672	38936	29696	37272	
3973	0	31616	29062	36512	10844	2775	32192	38780	27288	31936	167	32288	38928	29728	37256	
3974	0	31616	29052	36504	10693	2776	32288	38792	27248	31936	168	32576	38936	29736	37248	
3975	0	31624	29066	36508	10788	2777	32096	38772	27272	31936	169	32768	38936	29736	37248	
3976	0	31632	29061	36520	10822	2778	32128	38772	27272	31936	170	32528	38904	29704	37272	
3977	0	31616	29068	36496	10702	2779	32240	38796	27264	31952	171	32448	38924	29736	37248	
3978	0	31610	29060	36506	10840	2780	32224	38820	27272	31912	172	32800	38916	29752	37264	
3979	0	31612	29056	36504	10970	2781	32176	38792	27288	31904	173	33248	38916	29656	37328	
3980	0	31608	29052	36524	10680	2782	32064	38788	27276	31928	174	33424	38908	29688	37272	
3981	0	31602	29048	36496	11277	2783	31968	38788	27276	31928	175	33136	38908	29688	37272	
3982	0	31604	29064	36506	11178	2784	32016	38744	27336	31912	176	33040	38924	29688	37240	
3983	0	31596	29056	36504	10607	2785	32144	38736	27364	31896	177	32928	38932	29696	37280	
3984	0	31604	29064	36480	10604	2786	32176	38752	27384	31896	178	32896	38920	29728	37264	
3985	0	31606	29064	36488	10716	2787	32144	38728	27364	31896	179	32880	38924	29728	37280	
3986	0	31602	29061	36504	10354	2788	32320	38728	27364	31896	180	32416	38924	29728	37280	
3987	0	31604	29060	36496	10446	2789	32368	38792	27408	31912	181	32416	38836	29704	37256	
3988	0	31572	29074	36508	10248	2790	32640	38756	27372	31920	182	32160	38936	29712	37272	
3989	0	31560	29076	36510	10208	2791	32336	38752	27336	31896	183	32176	38880	29712	37272	
3990	0	31552	29073	36500	10357	2792	32544	38780	27392	31912	184	32112	38888	29688	37280	
3991	0	31552	29090	36492	10420	2793	32384	38780	27392	31912	185	32288	38924	29744	37280	
3992	0	31568	29082	36488	10452	2794	32336	38748	27388	31888	186	32128	38924	29744	37280	
3993	0	31572	29084	36500	10522	2795	32320	38756	27372	31872	187	32384	38900	29712	37224	
3994	0	31572	29092	36516	10438	2796	32080	38792	27336	31880	188	32608	38860	29680	37232	
3995	0	31572	29096	36493	10354	2797	32048	38768	27372	31848	189	32240	38844	29672	37256	
3996	0	31568	29090	36480	10156	2798	31984	38768	27372	31848	190	32368	38884	29728	37208	
3997	0	31572	29096	36496	9878	2799	32240	38784	27416	31848	191	32368	38884	29728	37208	
3998	0	31568	29096	36510	9960	2800	32192	38784	27364	31896	192	32608	38856	29744	37232	
3999	0	31568	29100	36504	9692	2801	32000	38760	27352	31880	193	32592	38848	29712	37208	
4000	0	31552	29080	36512	9792	2802	32192	38764	27344	31872	194	32560	38808	29704	37240	
4001	0	31552	29104	36508	10095	2803	32128	38764	27344	31872	195	32736	38880	29744	37240	
4002	0	31552	29092	36504	10048	2804	32112	38768	27408	31864	196	32544	38880	29744	37240	
4003	0	31540	29094	36514	9945	2805	32320	38748	27392	31832	197	32656	38828	29696	37256	
4004	0	31554	29096	36516	9985	2806	32464	38728	27392	31840	198	32576	38896	29696	37232	
4005	0	31564	29102	36506	9946	2807	32464	38776	27396	31840	199	33088	38816	29744	37272	
4006	0	31560	29084	36492	10229	2808	32256	38776	27396	31840	200	32720	38896	29720	37248	
4007	0	31560	29082	36496	10325	2809	32352	38764	27392	31856	201	32336	38888	29712	37264	
4008	0	31572	29068	36490	10406	2810	32448	38764	27364	31816	202	32272	38888	29712	37264	
4009	0	31572	29072	36484	10590	2811	32320	38744	27408	31848	203	32432	38916	29660	37248	
4010	0	31580	29072	36514	10654	2812	32176	38744	27408	31848	204	33024	38852	29680	37232	
4011	0	31578	29076	36494	10617	2813	32352	38820	27400	31872	205	32736	38820	29744	37224	
4012	0	31576	29084	36470	10496	2814	32256	38748	27380	31864	206	32976	38872	29744	37248	
4013	0	31580	29069	36468	10552	2815	32192	38736	27388	31856	207	32928	38872	29744	37248	
4014	0	31580	29090	36474	10486	2816	32272	38776	27380	31840	208	32912	38836	29728	37248	
4015	0	31576	29088	36472	10659	2817	32208	38776	27380	31840	209	32960	38800	29712	37248	
4016	0	31576	29092	36488	10242	2818	32368	38764	27396	31864	210	32416	38800	29744	37248	
4017	0	31588	29088	36472	10316	2819	32096	38800	27400	31848	211	32336	38836	29712	37272	
4018	0	31596	29092	36460	10374	2820	32224	38812	27384	31840	212	32464	38924	29712	37224	
4019	0	31588	29086	36464	10306	2821	32192	38744	27384	31808	213	32576	38924	29712	37224	
4020	0	31586	29095	36464	10185	2822	32112	38744	27384	31808	214	32592	38896	29712	37264	
4021	0	31584	29094	36456	10460	2823	32192	38700	27388	31856	215	32624	38880	29704	37304	
4022	0	31576	29092	36464	10556	2824	32144	38764	27416	31864	216	32496	38880	29696	37264	
4023	0	31573	29096	36468	10358	2825	32144	38700	27404	31864	217	32672	38908	29736	37264	
4024	0	31568	29108	36484	10624	2826	32128	38728	27380	31896	218	32560	38908	29736	37264	
4025	0	31572	29100	36476	10540	2827	32144	38728	27380	31896	219	32512	38872	29720	37208	
4026	0	31576	29108	36460	10621	2828	32336	38764	27380	31872	220	32368	38788	29720	37240	
4027	0	31580	29092	36464	10312	2829	32384	38744	27416	31880	221	32096	38888	29696	37224	
4028	0	31580	29098	36440	10411	2830	32448	38700	27404	31856	222	32080	38836	29672	37216	
4029	0	31580	29112	36456	10662	2831	32336	38712	27396	31848	223	32304	38800	29752	37216	
4030	0	31584	29096	36461	11058	2832	32432	38712	27396	31848	224	32384	38800	29752	37216	
4031	0	31586	29084	36470	10655	2833	32592	38688	27408	31856	225	32496	38808	29720	37176	
4032	0	31600	29080	36474	10832	2834	32256	38712	27400	31824	226	32528	38828	29712	37152	
4033	0	31596	29074	36481	11102	2835	32416	38728	27416	31888	227	32912	38788	29680	37104	
4034	0	31584	29086	36500	11292	2836	32000	38696	27400	31920	228	33008	38852	29704	37168	
4035	0	31584	29072	36480	11026	2837	32144	38696	27400	31920	229	33136	38852	29704	37168	
4036	0	31596	29080	36472	11214	2838	32368	38728	27356	31904	230	32752	38824	29720	37224	
4037	0	31592	29088	36476	11420	2839	32368	38708	27408	31952	231	32512	38792	29672	37208	
4038	0	31588	29084	36456	11476	2840	32448	38716	27424	31920	232	32640	38796	29712	37240	
4039	0	31584	29068	36448	11592	2841	32192	38700	27424	31896	233	32720	38856	29704	37272	
4040	0	31584	29084	36456	11876	2842	32256	38700	27424	31896	234	32304	38836	29704	37264	
4041	0	31572	29069	36440	12210	2843	32192	38764	27372	31904	235	32368	38836	29704	37264	
4042	0	31576	29092	36452	12424	2844	31888	38748	27408	31928	236	32496	38792	29664	37120	
4043	0	31568	29081	36478	12272	2845	32272	38764	27400	31904	237	32832	38776	29688	37224	
4044	0	31576	29084	36448	12522	2846	32080	38700	27384	31952	238	32848	38872	29712	37192	
4045	0	31596	29076	36452	12640	2847	32208	38700	27384	31952	239	32720	38800	29704	37216	
4046	0	31589	29080	36460	12708	2848	32432	38712	27380	31936	240	33040	38800	29704	37216	
4047	0	31580	29065	36444	12705	2849	32336	38752	27392	31912	241	33328	38808	29672	37192	
4048	0	31584	29078	36448	12884	2850	32144	38784	27400	31936	242	33216	38816	29720	37240	
4049	0	31580	29088	36440	12874	2851	32416	38768	27416	31920	243	32704	38816	29680	37208	
4050	0	31580	29084	36460	13096	2852	32432	38768	27416	31920	244	32592	38844	29712	37232	
4051	0	31592	29072	36496	12928	2853	32640	38736	27432	31936	245	32608	38880	29688	37224	
4052	0	31596	29068	36488	13086	2854	32224	38752	27416	31968	246	32128	38880	29688	37224	
4053	0	31592	29072	36500	13172	2855	32336	38764	27408	31920	247	32336	38836	29720	37160	
4054	0	31600	29064	36476	13454	2856	32304	38752	27400	31920	248	32656	38824	29704	37256	
4055	0	31588	29068	36504	13116	2857	32064	38752	27400	31920	249	32336	38860	29744	37224	
4056	0	31584	29084	36504	13244	2858	32240	38764	27408	31904	250	32256	38836	29720	37216	
4057	0	31586	29088	36493	13164	2859	32240	38756	27424	31904	251	32192	38836	29720	37216	
4058	0	31578	29080	36492	13224	2860	32224	38752	27424	31920	252	32592	38796	29688	37152	
4059	0	31596	29088	36480	13097	2861	32112	38760	27440	31864	253	32656	38836	29752	37232	
4060	0	31592	29086	36465	12892	2862	31968	38760	27440	31864	254	32800	38792	29688	37120	
4061	0	31604	29084	36474	12840	2863	32080	38756	27416	31896	255	32816	38824	29712	37240	
4062	0	31594	29084	36466	13052	2864	32192	38768	27424	31952	256	32736	38828	29784	37152	
4063	0	31600	29081	36464	13038	2865	32240	38768	27424	31864	257	32624	38828	29784	37152	
4064	0	31596	29072	36460	13098	2866	32272	38776	27416	31888	258	32768	38856	29752	37224	
4065	0	31596	29072	36482	12940	2867	32240	38776	27416	31888	259	32928	38828	29736	37216	
4066	0	31596	29088	36468	13106	2868	32528	38788	27424	31872	260	32768	38844	29728	37216	
4067	0	31588	29092	36484	13141	2869	32432	38776	27380	31880	261	32704	38816	29744	37144	
4068	0	31596	29096	36480	13302	2870	32464	38756	27408	31896	262	32736	38816	29744	37144	
4069	0	31592	29084	36468	13376	2871	32480	38756	27432	31936	263	32736	38800	29752	37168	
4070	0	31585	29088	36460	13461	2872	32256	38756	27432	31936	264	32624	38868	29744	37136	
4071	0	31584	29098	36460	13534	2873	32448	38752	27408	31912	265	32448	38896	29752	37232	
4072	0	31585	29100	36476	13558	2874	32176	38744	27424	31976	266	32384	38864	29736	37216	
4073	0	31580	29096	36460	13640	2875	32192	38800	27372	31952	267	32528	38844	29768	37200	
4074	0	31584	29104	36472	13648	2876	32288	38764	27416	31888	268	32400	38844	29768	37200	
4075	0	31588	29104	36452	13380	2877	32240	38764	27416	31888	269	32416	38852	29720	37136	
4076	0	31592	29096	36456	13454	2878	32112	38796	27392	31928	270	32560	38828	29736	37192	
4077	0	31600	29104	36452	13570	2879	32112	38772	27416	31880	271	32672	38880	29752	37224	
4078	0	31589	29097	36452	13513	2880	32016	38764	27400	31864	272	32272	38816	29744	37152	
4079	0	31584	29116	36468	13628	2881	32176	38772	27352	31896	273	32192	38816	29744	37152	
4080	0	31576	29110	36492	13586	2882	31808	38772	27352	31896	274	32352	38800	29768	37136	
4081	0	31580	29101	36484	13464	2883	32144	38768	27364	31928	275	32352	38864	29760	37168	
4082	0	31600	29112	36480	13622	2884	32320	38712	27424	31888	276	32384	38864	29768	37176	
4083	0	31612	29112	36476	13700	2885	32240	38812	27360	31912	277	32336	38808	29768	37208	
4084	0	31612	29116	36457	13762	2886	32352	38800	27372	31920	278	32832	38900	29728	37192	
4085	0	31608	29108	36472	14008	2887	32432	38800	27372	31920	279	32848	38900	29728	37192	
4086	0	31600	29104	36496	13883	2888	32464	38812	27372	31904	280	32864	38796	29768	37144	
4087	0	31588	29104	36500	13780	2889	32272	38776	27408	31936	281	32608	38776	29776	37160	
4088	0	31573	29100	36476	13870	2890	32432	38752	27372	31936	282	32624	38828	29712	37176	
4089	0	31580	29112	36444	13954	2891	32736	38772	27352	31904	283	32704	38820	29784	37152	
4090	0	31572	29096	36465	13992	2892	32048	38772	27352	31904	284	32880	38820	29784	37152	
4091	0	31576	29093	36441	13720	2893	32256	38756	27372	31920	285	32960	38844	29744	37192	
4092	0	31588	29096	36442	13938	2894	32288	38772	27336	31912	286	32960	38816	29744	37208	
4093	0	31584	29096	36434	13996	2895	32240	38764	27388	31928	287	32928	38840	29736	37080	
4094	0	31585	29100	36460	14024	2896	32192	38792	27392	31928	288	32672	38804	29736	37208	
4095	0	31580	29100	36460	13722	2897	32320	38792	27392	31928	289	32768	38788	29720	37128	
4096	0	31580	29105	36460	13805	2898	32176	38724	27372	31928	290	32432	38788	29720	37128	
4097	0	31586	29102	36452	13776	2899	32368	38760	27352	31920	291	32496	38828	29736	37136	
4098	0	31582	29102	36460	13770	2900	32320	38752	27360	31928	292	32384	38844	29752	37200	
4099	0	31576	29120	36440	13940	2901	32320	38764	27328	31920	293	32352	38852	29744	37168	
4100	0	31564	29114	36420	13892	2902	32288	38764	27328	31920	294	32144	38788	29744	37232	
4101	0	31580	29112	36428	13610	2903	32176	38744	27320	31936	295	32320	38788	29744	37232	
4102	0	31584	29106	36424	13780	2904	32160	38756	27356	31912	296	32448	38776	29760	37232	
4103	0	31584	29106	36433	13792	2905	32112	38764	27368	31976	297	32560	38776	29752	37144	
4104	0	31578	29112	36452	13832	2906	32176	38744	27372	31928	298	32832	38792	29720	37136	
4105	0	31592	29104	36452	13757	2907	32128	38744	27372	31928	299	32864	38756	29720	37120	
4106	0	31600	29108	36448	13668	2908	32448	38744	27408	31912	300	32656	38756	29720	37120	
4107	0	31596	29104	36428	13812	2909	32352	38784	27352	31936	301	32544	38788	29752	37128	
4108	0	31592	29120	36440	13717	2910	32688	38764	27344	31952	302	32656	38784	29720	37080	
4109	0	31596	29112	36452	13952	2911	32688	38748	27372	31920	303	32992	38796	29744	37184	
4110	0	31584	29122	36456	13706	2912	32256	38748	27372	31920	304	32640	38820	29688	37176	
4111	0	31582	29120	36452	13738	2913	32384	38752	27360	31960	305	32336	38780	29720	37168	
4112	0	31592	29120	36444	13805	2914	32080	38756	27336	31928	306	32256	38780	29720	37168	
4113	0	31572	29111	36408	13832	2915	32256	38752	27364	31920	307	33024	38808	29720	37144	
4114	0	31564	29117	36424	13912	2916	32208	38736	27400	31920	308	33184	38860	29728	37208	
4115	0	31568	29130	36416	13929	2917	32144	38736	27400	31920	309	33360	38808	29688	37200	
4116	0	31568	29116	36432	13656	2918	32352	38744	27344	31912	310	32880	38820	29704	37152	
4117	0	31566	29120	36424	13674	2919	32064	38780	27380	31912	311	32672	38820	29704	37152	
4118	0	31576	29112	36429	13898	2920	32096	38816	27380	31920	312	32512	38788	29696	37208	
4119	0	31592	29120	36424	13848	2921	32192	38748	27320	31936	313	32512	38824	29704	37216	
4120	0	31588	29120	36424	13808	2922	32240	38748	27320	31936	314	32384	38880	29728	37208	
4121	0	31589	29124	36428	13920	2923	32224	38748	27400	31952	315	31952	38828	29712	37144	
4122	0	31596	29112	36436	13810	2924	32256	38764	27372	31904	316	32176	38816	29736	37200	
4123	0	31572	29116	36444	13680	2925	32272	38772	27388	31960	317	32320	38816	29736	37200	
4124	0	31568	29106	36436	13832	2926	32208	38772	27388	31960	318	32480	38776	29696	37120	
4125	0	31572	29104	36442	13967	2927	32368	38788	27376	31952	319	32560	38808	29720	37152	
4126	0	31568	29124	36448	13972	2928	32352	38756	27340	31928	320	32656	38816	29688	37224	
4127	0	31568	29116	36464	13818	2929	32336	38788	27352	31904	321	32512	38800	29736	37136	
4128	0	31576	29104	36456	13947	2930	32416	38756	27336	32000	322	32304	38800	29736	37136	
4129	0	31574	29100	36456	13904	2931	32288	38756	27336	32000	323	32336	38896	29736	37128	
4130	0	31576	29088	36440	14034	2932	32400	38804	27296	31960	324	32480	38792	29720	37152	
4131	0	31568	29104	36444	13852	2933	32176	38764	27352	31912	325	32432	38836	29696	37120	
4132	0	31568	29100	36453	13694	2934	32272	38788	27416	31904	326	32416	38864	29744	37136	
4133	0	31568	29108	36444	13728	2935	32304	38756	27440	31928	327	32384	38836	29744	37176	
4134	0	31566	29104	36448	13838	2936	32240	38756	27440	31928	328	32944	38836	29744	37176	
4135	0	31592	29104	36440	13907	2937	32176	38784	27424	31968	329	33376	38844	29736	37160	
4136	0	31596	29109	36416	13796	2938	32304	38744	27388	31928	330	33200	38860	29688	37208	
4137	0	31608	29096	36420	13794	2939	32448	38780	27416	31944	331	32624	38888	29712	37200	
4138	0	31604	29112	36428	13776	2940	32160	38776	27448	31920	332	32608	38860	29760	37144	
4139	0	31608	29096	36404	13810	2941	32272	38776	27448	31920	333	32848	38860	29760	37144	
4140	0	31608	29101	36430	13971	2942	32144	38772	27376	31936	334	32896	38800	29696	37216	
4141	0	31600	29108	36440	13622	2943	32256	38784	27396	31928	335	32496	38836	29720	37208	
4142	0	31592	29096	36432	13794	2944	31984	38768	27400	31968	336	32352	38860	29712	37168	
4143	0	31612	29104	36432	13882	2945	32416	38728	27380	31944	337	32816	38820	29728	37224	
4144	0	31608	29100	36446	13976	2946	32272	38728	27380	31944	338	32656	38816	29704	37104	
4145	0	31608	29100	36466	13603	2947	32080	38756	27392	31952	339	32560	38816	29704	37104	
4146	0	31604	29096	36444	13737	2948	32416	38796	27376	31952	340	32848	38824	29720	37184	
4147	0	31608	29096	36436	13824	2949	32096	38784	27416	31936	341	32560	38856	29688	37216	
4148	0	31617	29112	36412	13856	2950	32256	38748	27384	31920	342	32416	38864	29688	37224	
4149	0	31612	29112	36404	13662	2951	32528	38748	27384	31920	343	32544	38856	29736	37168	
4150	0	31608	29114	36416	13822	2952	32000	38764	27400	31920	344	32704	38856	29736	37168	
4151	0	31608	29116	36418	13732	2953	32288	38776	27380	31912	345	32608	38780	29744	37144	
4152	0	31604	29113	36416	13850	2954	32160	38808	27400	31904	346	32592	38856	29744	37232	
4153	0	31608	29128	36428	13661	2955	32224	38760	27384	31936	347	32384	38800	29720	37192	
4154	0	31604	29136	36432	13852	2956	32192	38760	27384	31936	348	32864	38892	29744	37200	
4155	0	31616	29132	36426	13955	2957	32224	38768	27416	31920	349	32448	38860	29720	37200	
4156	0	31624	29130	36400	13812	2958	32304	38792	27392	31928	350	32208	38860	29720	37200	
4157	0	31633	29128	36416	13972	2959	32224	38776	27372	31952	351	32304	38844	29680	37208	
4158	0	31628	29114	36420	13852	2960	32048	38784	27356	31920	352	32560	38872	29728	37224	
4159	0	31620	29128	36420	13684	2961	32336	38784	27356	31920	353	32432	38880	29768	37208	
4160	0	31616	29121	36428	13824	2962	32256	38800	27348	31920	354	32480	38872	29736	37216	
4161	0	31624	29116	36442	13840	2963	32496	38804	27392	31928	355	32688	38872	29736	37216	
4162	0	31616	29116	36444	13934	2964	32400	38764	27336	31912	356	32688	38816	29736	37216	
4163	0	31612	29112	36452	13656	2965	32320	38840	27384	31952	357	32624	38872	29784	37216	
4164	0	31605	29116	36448	13652	2966	32304	38840	27384	31952	358	32768	38864	29736	37184	
4165	0	31608	29116	36436	13764	2967	32064	38772	27364	31880	359	32864	38844	29704	37200	
4166	0	31604	29122	36424	13742	2968	32240	38752	27344	31880	360	32880	38872	29744	37224	
4167	0	31605	29116	36428	13849	2969	32144	38796	27396	31912	361	32512	38872	29744	37224	
4168	0	31612	29120	36424	13638	2970	32240	38756	27400	31944	362	32352	38888	29704	37144	
4169	0	31612	29112	36428	13884	2971	32368	38756	27400	31944	363	32240	38888	29712	37224	
4170	0	31608	29120	36428	13832	2972	32096	38760	27380	31952	364	32480	38888	29704	37160	
4171	0	31604	29120	36408	13810	2973	32368	38756	27380	31896	365	32512	38916	29752	37288	
4172	0	31596	29116	36412	13941	2974	32176	38752	27424	31896	366	32368	38916	29752	37288	
4173	0	31592	29120	36428	13716	2975	32240	38764	27448	31944	367	32640	38872	29704	37168	
4174	0	31604	29140	36436	13844	2976	32144	38764	27448	31944	368	32912	38816	29712	37216	
4175	0	31600	29136	36432	13896	2977	32144	38744	27380	31984	369	32800	38904	29704	37184	
4176	0	31594	29134	36424	13816	2978	32592	38776	27392	31976	370	32784	38880	29680	37192	
4177	0	31588	29120	36436	13912	2979	32272	38764	27400	31952	371	32448	38860	29688	37216	
4178	0	31592	29130	36432	13825	2980	32160	38772	27372	31928	372	32528	38860	29688	37216	
4179	0	31608	29124	36424	13633	2981	32400	38772	27372	31928	373	32688	38880	29680	37272	
4180	0	31608	29120	36424	13784	2982	32112	38768	27344	31976	374	32688	38860	29720	37216	
4181	0	31604	29116	36420	13822	2983	32288	38756	27356	31976	375	32528	38888	29720	37216	
4182	0	31594	29128	36428	13950	2984	32208	38756	27356	31960	376	32640	38864	29728	37240	
4183	0	31584	29128	36408	13842	2985	32176	38772	27380	31992	377	32608	38864	29728	37240	
4184	0	31596	29138	36408	13944	2986	32192	38772	27380	31992	378	32816	38904	29712	37152	
4185	0	31588	29128	36412	13994	2987	32192	38744	27352	31920	379	32800	38844	29720	37216	
4186	0	31586	29136	36424	14216	2988	32160	38764	27400	31928	380	32640	38872	29736	37208	
4187	0	31584	29122	36432	14064	2989	32112	38756	27376	31936	381	32640	38856	29736	37256	
4188	0	31596	29124	36424	14322	2990	32288	38760	27380	31848	382	32672	38836	29712	37248	
4189	0	31588	29136	36428	14360	2991	32384	38760	27380	31848	383	32784	38836	29712	37248	
4190	0	31589	29136	36418	14156	2992	32304	38756	27396	31920	384	33120	38860	29720	37264	
4191	0	31592	29132	36405	14305	2993	32320	38752	27364	31928	385	32864	38888	29744	37296	
4192	0	31596	29128	36412	14277	2994	31792	38764	27344	31944	386	32944	38852	29696	37256	
4193	0	31592	29128	36400	14272	2995	32000	38776	27372	31944	387	32640	38852	29720	37232	
4194	0	31600	29130	36412	14248	2996	32256	38776	27372	31944	388	32352	38852	29720	37232	
4195	0	31584	29144	36410	14370	2997	32112	38732	27400	31936	389	32288	38872	29736	37240	
4196	0	31584	29130	36401	14384	2998	32384	38744	27336	31912	390	32352	38800	29784	37240	
4197	0	31588	29128	36440	14516	2999	32144	38764	27384	31944	391	32512	38808	29744	37224	
4198	0	31574	29112	36460	14398	3000	32288	38748	27400	31904	392	32480	38824	29704	37224	
4199	0	31578	29122	36466	14344	3001	32160	38748	27400	31904	393	32464	38864	29720	37176	
4200	0	31588	29128	36448	14410	3002	32224	38748	27372	31944	394	32400	38864	29720	37176	
4201	0	31586	29109	36456	14552	3003	32224	38768	27336	31976	395	32448	38828	29720	37160	
4202	0	31580	29113	36448	14522	3004	32304	38748	27392	31952	396	32176	38816	29744	37184	
4203	0	31584	29128	36434	14425	3005	32368	38736	27372	31896	397	32352	38828	29752	37200	
4204	0	31588	29120	36428	14272	3006	32464	38736	27372	31896	398	32288	38836	29744	37248	
4205	0	31588	29120	36424	14419	3007	32096	38716	27364	31912	399	32192	38836	29744	37248	
4206	0	31588	29124	36416	14527	3008	32272	38764	27380	31952	400	32176	38804	29704	37184	
4207	0	31592	29114	36400	14416	3009	32192	38728	27372	31896	401	32320	38820	29712	37200	
4208	0	31596	29090	36392	14374	3010	32384	38812	27360	31936	402	32416	38828	29744	37256	
4209	0	31600	29092	36412	14620	3011	32400	38812	27360	31936	403	32752	38840	29728	37208	
4210	0	31600	29103	36436	14696	3012	32272	38792	27372	31912	404	33280	38840	29728	37208	
4211	0	31596	29097	36420	14751	3013	32272	38756	27396	31912	405	33104	38840	29712	37216	
4212	0	31588	29096	36422	14718	3014	32256	38804	27380	31928	406	32976	38820	29696	37232	
4213	0	31592	29108	36436	14493	3015	32272	38772	27392	31888	407	33120	38828	29736	37224	
4214	0	31588	29120	36436	14319	3016	32432	38772	27392	31888	408	32944	38820	29760	37104	
4215	0	31578	29120	36444	14458	3017	32272	38780	27364	31904	409	32720	38856	29760	37152	
4216	0	31584	29121	36430	14528	3018	32112	38800	27380	31936	410	32608	38856	29760	37152	
4217	0	31564	29128	36444	14571	3019	32224	38780	27360	31904	411	32688	38812	29728	37216	
4218	0	31576	29124	36436	14431	3020	32144	38780	27372	31952	412	32448	38804	29672	37224	
4219	0	31586	29089	36440	14440	3021	32192	38780	27372	31952	413	32448	38732	29744	37200	
4220	0	31592	29104	36444	14624	3022	32272	38712	27328	31888	414	32464	38812	29664	37240	
4221	0	31592	29109	36432	14604	3023	32128	38764	27372	31904	415	32464	38812	29664	37240	
4222	0	31589	29108	36428	14580	3024	31968	38764	27356	31904	416	32288	38808	29704	37248	
4223	0	31600	29100	36448	14604	3025	32160	38752	27356	31920	417	32576	38788	29752	37208	
4224	0	31596	29092	36448	14592	3026	32176	38752	27356	31920	418	32784	38792	29696	37200	
4225	0	31600	29100	36448	14689	3027	32224	38724	27336	31920	419	32800	38816	29736	37232	
4226	0	31592	29116	36436	14454	3028	32464	38728	27352	31912	420	32800	38792	29744	37192	
4227	0	31592	29104	36436	14632	3029	32112	38736	27328	31928	421	32464	38792	29744	37192	
4228	0	31596	29102	36444	14527	3030	32448	38760	27336	31928	422	32624	38824	29736	37208	
4229	0	31592	29108	36448	14652	3031	32496	38760	27336	31928	423	32448	38800	29720	37232	
4230	0	31592	29088	36440	14443	3032	32416	38736	27328	31896	424	32656	38788	29720	37224	
4231	0	31594	29100	36456	14610	3033	32416	38752	27296	31880	425	32816	38796	29768	37208	
4232	0	31592	29100	36437	14649	3034	32032	38764	27336	31912	426	32544	38796	29768	37208	
4233	0	31594	29104	36452	14640	3035	32192	38752	27328	31928	427	32944	38776	29688	37152	
4234	0	31596	29104	36426	14592	3036	32160	38752	27328	31928	428	33232	38812	29744	37176	
4235	0	31600	29096	36432	14641	3037	32176	38764	27372	31888	429	33136	38836	29712	37248	
4236	0	31616	29096	36437	14536	3038	32176	38732	27320	31904	430	32912	38892	29720	37248	
4237	0	31608	29096	36456	14712	3039	32064	38736	27336	31896	431	32432	38812	29696	37272	
4238	0	31605	29104	36446	14681	3040	32048	38764	27304	31904	432	31776	38812	29696	37272	
4239	0	31616	29112	36420	14592	3041	32176	38764	27304	31904	433	31968	38808	29696	37200	
4240	0	31608	29092	36416	14728	3042	32176	38740	27304	31912	434	32160	38816	29720	37232	
4241	0	31596	29098	36434	14752	3043	32224	38764	27312	31920	435	32208	38828	29728	37288	
4242	0	31592	29096	36448	14662	3044	32304	38756	27304	31936	436	32656	38880	29744	37272	
4243	0	31586	29084	36444	14565	3045	32256	38756	27304	31968	437	32768	38880	29744	37272	
4244	0	31584	29092	36448	14726	3046	32304	38756	27304	31968	438	32896	38816	29736	37216	
4245	0	31592	29088	36440	14904	3047	32336	38804	27272	31992	439	32544	38824	29736	37224	
4246	0	31576	29086	36434	14856	3048	32320	38740	27296	31920	440	32304	38844	29752	37240	
4247	0	31584	29096	36436	14824	3049	32416	38764	27296	31912	441	32512	38828	29720	37288	
4248	0	31580	29091	36428	14570	3050	32400	38764	27296	31912	442	32800	38816	29736	37248	
4249	0	31586	29100	36432	14710	3051	32480	38736	27304	31904	443	32576	38816	29736	37248	
4250	0	31584	29096	36432	14726	3052	32224	38764	27320	31920	444	32928	38828	29696	37224	
4251	0	31580	29106	36436	14876	3053	32384	38764	27288	31920	445	32768	38796	29696	37216	
4252	0	31584	29094	36430	14809	3054	32224	38792	27296	31912	446	32384	38856	29712	37232	
4253	0	31568	29105	36416	14885	3055	32432	38792	27296	31912	447	32336	38856	29744	37256	
4254	0	31564	29101	36408	15004	3056	32304	38724	27304	31912	448	32080	38856	29744	37256	
4255	0	31578	29096	36428	15062	3057	32144	38796	27320	31912	449	32352	38836	29696	37232	
4256	0	31582	29096	36440	15261	3058	32304	38812	27364	31928	450	32608	38844	29696	37160	
4257	0	31584	29098	36443	14936	3059	32128	38768	27304	31880	451	32672	38872	29728	37232	
4258	0	31592	29098	36456	15024	3060	32128	38768	27304	31880	452	32944	38844	29680	37200	
4259	0	31576	29100	36468	15360	3061	32240	38764	27328	31936	453	32960	38844	29728	37280	
4260	0	31600	29096	36464	15280	3062	32208	38756	27336	31936	454	32816	38844	29728	37280	
4261	0	31584	29094	36440	15396	3063	32512	38816	27344	31976	455	32800	38844	29712	37280	
4262	0	31596	29096	36440	15309	3064	32272	38808	27344	31952	456	32640	38844	29704	37232	
4263	0	31596	29084	36444	15528	3065	32128	38808	27344	31952	457	32256	38904	29672	37280	
4264	0	31596	29084	36448	16002	3066	32080	38832	27336	31960	458	32624	38904	29704	37248	
4265	0	31588	29084	36442	16060	3067	32176	38792	27304	31904	459	32608	38904	29704	37248	
4266	0	31600	29088	36432	16328	3068	32432	38732	27344	31928	460	32496	38888	29680	37208	
4267	0	31596	29092	36432	16473	3069	32336	38780	27320	31960	461	32480	38908	29664	37288	
4268	0	31600	29104	36420	16404	3070	32368	38780	27320	31960	462	32400	38888	29664	37248	
4269	0	31594	29097	36418	16761	3071	32160	38744	27384	31936	463	32736	38880	29664	37256	
4270	0	31586	29110	36422	16798	3072	32176	38752	27328	31936	464	32608	38896	29680	37256	
4271	0	31601	29112	36416	16765	3073	31920	38752	27344	31928	465	32576	38896	29680	37256	
4272	0	31600	29120	36420	17068	3074	32288	38744	27320	31936	466	32496	38816	29664	37232	
4273	0	31604	29116	36424	16965	3075	32080	38744	27320	31936	467	32736	38836	29696	37216	
4274	0	31612	29096	36434	17132	3076	31904	38772	27360	31912	468	32576	38880	29688	37232	
4275	0	31616	29102	36416	17310	3077	32416	38736	27324	31968	469	32816	38860	29712	37216	
4276	0	31628	29112	36448	17164	3078	32080	38752	27344	31944	470	32592	38860	29712	37216	
4277	0	31616	29112	36460	17206	3079	32272	38748	27336	31960	471	32416	38800	29680	37208	
4278	0	31612	29112	36460	17400	3080	32256	38748	27336	31960	472	32512	38828	29664	37240	
4279	0	31604	29108	36456	17428	3081	32304	38728	27320	31944	473	32976	38844	29664	37240	
4280	0	31612	29120	36456	17481	3082	32256	38756	27328	31952	474	32976	38852	29664	37256	
4281	0	31605	29104	36460	17277	3083	32384	38752	27348	31936	475	32944	38924	29688	37264	
4282	0	31604	29116	36454	17230	3084	32464	38736	27336	31936	476	32880	38924	29688	37264	
4283	0	31604	29124	36428	17320	3085	32448	38736	27336	31936	477	33056	38872	29688	37256	
4284	0	31592	29112	36408	17418	3086	32496	38748	27304	31912	478	32752	38864	29656	37248	
4285	0	31580	29116	36432	17473	3087	32128	38768	27312	31936	479	32272	38864	29696	37208	
4286	0	31596	29120	36464	17473	3088	32240	38772	27244	31920	480	32144	38888	29712	37232	
4287	0	31604	29122	36440	17294	3089	32208	38764	27240	31912	481	32272	38888	29712	37232	
4288	0	31588	29132	36436	17393	3090	32224	38764	27240	31912	482	32608	38888	29632	37248	
4289	0	31588	29132	36424	17494	3091	32144	38708	27328	31904	483	32400	38788	29656	37232	
4290	0	31580	29136	36432	17585	3092	32432	38700	27424	31928	484	32608	38888	29664	37240	
4291	0	31600	29124	36416	17664	3093	32528	38724	27416	31920	485	32608	38872	29656	37232	
4292	0	31592	29128	36408	17674	3094	32336	38720	27440	31952	486	32640	38896	29648	37192	
4293	0	31588	29126	36416	17466	3095	32320	38720	27440	31952	487	32432	38896	29648	37192	
4294	0	31602	29116	36424	17614	3096	32224	38696	27400	31936	488	32576	38832	29612	37184	
4295	0	31596	29136	36408	17651	3097	32160	38724	27424	31888	489	32800	38844	29680	37208	
4296	0	31608	29128	36416	17425	3098	31952	38736	27400	31952	490	32448	38896	29672	37208	
4297	0	31592	29128	36428	17626	3099	32304	38720	27364	31944	491	31968	38844	29640	37200	
4298	0	31600	29120	36437	17809	3100	32080	38720	27364	31944	492	32160	38844	29640	37200	
4299	0	31592	29144	36442	17922	3101	32240	38716	27400	31920	493	32368	38852	29680	37200	
4300	0	31596	29128	36447	17777	3102	32000	38728	27348	31888	494	32352	38864	29672	37256	
4301	0	31600	29124	36452	17816	3103	32112	38716	27416	31912	495	32272	38816	29672	37224	
4302	0	31596	29124	36436	17848	3104	32128	38708	27388	31904	496	32464	38844	29672	37192	
4303	0	31590	29116	36432	17868	3105	32112	38708	27388	31904	497	32816	38844	29672	37192	
4304	0	31590	29110	36436	17548	3106	32192	38728	27372	31896	498	32816	38808	29656	37232	
4305	0	31596	29128	36440	17616	3107	32240	38708	27364	31912	499	33072	38780	29688	37224	
4306	0	31596	29125	36456	17772	3108	32624	38764	27344	31920	500	32640	38792	29680	37264	
4307	0	31600	29120	36448	17808	3109	32352	38744	27344	31880	501	33056	38824	29704	37280	
4308	0	31604	29124	36432	17802	3110	32384	38744	27344	31880	502	33120	38768	29688	37232	
4309	0	31596	29120	36444	17712	3111	32400	38744	27372	31896	503	33008	38768	29688	37232	
4310	0	31598	29116	36444	17852	3112	32240	38732	27384	31888	504	32752	38840	29672	37240	
4311	0	31604	29128	36428	17832	3113	32400	38756	27336	31920	505	32800	38752	29688	37240	
4312	0	31600	29134	36428	17952	3114	32160	38744	27336	31880	506	32592	38788	29712	37240	
4313	0	31602	29124	36428	17728	3115	32096	38744	27336	31880	507	32448	38796	29712	37272	
4314	0	31596	29132	36440	17682	3116	31840	38716	27388	31880	508	32720	38796	29712	37272	
4315	0	31600	29108	36437	17740	3117	32144	38728	27364	31896	509	32912	38788	29704	37232	
4316	0	31616	29112	36432	17792	3118	32464	38736	27376	31864	510	32544	38788	29640	37224	
4317	0	31608	29104	36434	17750	3119	32224	38728	27388	31880	511	32128	38748	29680	37216	
4318	0	31608	29112	36436	17712	3120	32144	38728	27388	31880	512	32800	38776	29704	37256	
4319	0	31596	29108	36448	17436	3121	32368	38748	27372	31912	513	33232	38756	29672	37248	
4320	0	31584	29108	36452	17566	3122	32048	38716	27376	31880	514	33056	38756	29672	37248	
4321	0	31586	29124	36464	17588	3123	32112	38708	27336	31888	515	32544	38796	29712	37208	
4322	0	31592	29124	36472	17654	3124	32448	38728	27336	31872	516	32352	38776	29696	37240	
4323	0	31592	29114	36472	17479	3125	32384	38728	27336	31872	517	32592	38812	29720	37232	
4324	0	31608	29120	36453	17504	3126	32480	38728	27388	31888	518	32768	38748	29680	37216	
4325	0	31586	29128	36462	17500	3127	32288	38712	27320	31896	519	32496	38748	29680	37216	
4326	0	31576	29120	36452	17592	3128	32384	38728	27392	31872	520	32160	38780	29704	37224	
4327	0	31574	29112	36456	17476	3129	32320	38720	27356	31912	521	31984	38784	29680	37248	
4328	0	31593	29084	36468	17416	3130	32480	38720	27356	31912	522	32192	38784	29672	37240	
4329	0	31584	29098	36468	17562	3131	32352	38736	27352	31912	523	32224	38776	29696	37080	
4330	0	31584	29093	36478	17536	3132	32240	38812	27296	31896	524	32176	38768	29696	37272	
4331	0	31584	29104	36484	17397	3133	32224	38756	27364	31888	525	32128	38768	29696	37272	
4332	0	31584	29108	36476	17512	3134	32272	38752	27364	31896	526	32320	38740	29688	37256	
4333	0	31577	29112	36464	17425	3135	32208	38752	27364	31896	527	32528	38748	29664	37224	
4334	0	31580	29112	36440	17596	3136	32144	38824	27352	31888	528	32576	38760	29672	37264	
4335	0	31572	29108	36440	17365	3137	32112	38728	27336	31880	529	32544	38776	29696	37216	
4336	0	31568	29104	36440	17396	3138	32256	38756	27364	31920	530	32416	38776	29696	37216	
4337	0	31564	29104	36448	17456	3139	32272	38748	27340	31912	531	32528	38788	29680	37208	
4338	0	31576	29096	36436	17396	3140	32288	38748	27340	31912	532	32656	38776	29664	37216	
4339	0	31577	29096	36448	17549	3141	32208	38756	27320	31928	533	32640	38788	29680	37216	
4340	0	31580	29084	36436	17452	3142	32128	38728	27356	31936	534	32944	38796	29664	37248	
4341	0	31576	29098	36448	17376	3143	32256	38760	27360	31936	535	33056	38796	29672	37208	
4342	0	31560	29100	36456	17486	3144	32176	38760	27364	31912	536	33344	38796	29672	37208	
4343	0	31564	29116	36452	17500	3145	32256	38760	27364	31912	537	33456	38800	29656	37232	
4344	0	31580	29104	36480	17500	3146	32272	38764	27344	31904	538	33184	38784	29664	37200	
4345	0	31564	29102	36464	17304	3147	32320	38728	27352	31928	539	33152	38796	29680	37200	
4346	0	31562	29102	36448	17462	3148	32320	38752	27356	31872	540	32080	38792	29648	37264	
4347	0	31560	29101	36440	17426	3149	32288	38728	27356	31928	541	31904	38792	29648	37264	
4348	0	31552	29100	36452	17556	3150	32464	38728	27356	31928	542	32096	38788	29704	37208	
4349	0	31544	29093	36462	17370	3151	32400	38768	27364	31952	543	32272	38844	29696	37216	
4350	0	31548	29100	36460	17337	3152	31984	38764	27364	31904	544	32048	38796	29720	37232	
4351	0	31548	29100	36456	17368	3153	32288	38768	27380	31912	545	32304	38788	29680	37264	
4352	0	31552	29092	36452	17349	3154	32272	38804	27360	31960	546	32384	38776	29664	37192	
4353	0	31553	29100	36452	17374	3155	32144	38804	27360	31960	547	32624	38776	29664	37192	
4354	0	31556	29104	36460	17378	3156	32016	38772	27344	31912	548	32496	38792	29704	37192	
4355	0	31544	29108	36468	17192	3157	32160	38760	27364	31912	549	32448	38760	29688	37168	
4356	0	31550	29114	36464	17280	3158	32256	38764	27344	31920	550	32624	38792	29680	37240	
4357	0	31548	29112	36448	17296	3159	32144	38752	27400	31960	551	32912	38808	29696	37224	
4358	0	31552	29108	36436	17347	3160	31968	38752	27400	31960	552	32800	38808	29696	37224	
4359	0	31556	29098	36432	17406	3161	32432	38780	27408	31976	553	33040	38836	29688	37216	
4360	0	31560	29104	36424	17198	3162	32016	38764	27372	31952	554	33376	38800	29656	37256	
4361	0	31570	29098	36440	17338	3163	32176	38760	27384	31904	555	32912	38808	29712	37152	
4362	0	31576	29089	36452	17440	3164	32304	38752	27372	31928	556	32432	38780	29688	37256	
4363	0	31568	29092	36444	17492	3165	32448	38752	27372	31928	557	32496	38828	29672	37240	
4364	0	31561	29102	36448	17312	3166	32320	38752	27392	31904	558	32656	38828	29672	37240	
4365	0	31568	29108	36476	17244	3167	32048	38784	27416	31896	559	32640	38820	29656	37232	
4366	0	31560	29116	36452	17261	3168	32144	38792	27408	31912	560	32480	38792	29672	37248	
4367	0	31552	29116	36458	17440	3169	32432	38792	27408	31912	561	32480	38852	29696	37248	
4368	0	31548	29113	36436	17488	3170	32464	38792	27408	31928	562	32576	38888	29680	37248	
4369	0	31546	29121	36428	17604	3171	32448	38764	27392	31960	563	32384	38888	29680	37248	
4370	0	31540	29112	36420	17627	3172	32080	38768	27408	31912	564	32512	38788	29680	37208	
4371	0	31556	29116	36416	17904	3173	32480	38744	27432	31920	565	32784	38864	29664	37088	
4372	0	31572	29108	36424	18106	3174	32224	38744	27432	31920	566	32368	38776	29688	37152	
4373	0	31568	29108	36429	17881	3175	32224	38832	27376	31920	567	32512	38796	29656	37232	
4374	0	31576	29104	36432	17775	3176	32208	38792	27400	31912	568	32464	38808	29712	37152	
4375	0	31570	29104	36432	17678	3177	32048	38816	27372	31920	569	32688	38808	29712	37152	
4376	0	31568	29108	36440	17712	3178	32080	38788	27380	31952	570	32784	38828	29712	37200	
4377	0	31572	29112	36448	17712	3179	32160	38788	27380	31952	571	32352	38788	29688	37120	
4378	0	31578	29092	36420	17860	3180	32448	38740	27396	31912	572	32608	38828	29712	37208	
4379	0	31572	29120	36416	17944	3181	32176	38752	27408	31976	573	32608	38844	29696	37232	
4380	0	31572	29128	36456	17717	3182	32112	38772	27408	31904	574	32448	38844	29696	37232	
4381	0	31572	29137	36420	17774	3183	32368	38744	27440	31896	575	31920	38852	29672	37240	
4382	0	31576	29136	36416	17908	3184	32224	38744	27440	31896	576	32112	38804	29660	37248	
4383	0	31576	29128	36428	17980	3185	32368	38708	27432	31912	577	33008	38820	29672	37224	
4384	0	31578	29120	36448	18073	3186	32272	38736	27424	31880	578	33280	38856	29640	37120	
4385	0	31586	29124	36426	17869	3187	32096	38772	27448	31912	579	33344	38800	29620	37208	
4386	0	31584	29138	36432	17996	3188	32320	38776	27400	31912	580	32864	38800	29620	37208	
4387	0	31580	29134	36425	18020	3189	32352	38776	27400	31912	581	32576	38828	29696	37160	
4388	0	31568	29128	36440	18062	3190	32400	38728	27416	31904	582	32848	38800	29672	37208	
4389	0	31580	29132	36452	18070	3191	32304	38756	27416	31864	583	32688	38792	29648	37080	
4390	0	31568	29145	36452	18008	3192	32048	38792	27392	31920	584	32592	38828	29648	37104	
4391	0	31568	29146	36432	18144	3193	32016	38764	27392	31888	585	32848	38828	29648	37104	
4392	0	31552	29138	36432	17945	3194	32240	38764	27392	31888	586	32624	38816	29664	37264	
4393	0	31552	29152	36432	17920	3195	32240	38772	27404	31848	587	32736	38788	29696	37152	
4394	0	31564	29149	36452	18004	3196	32256	38804	27392	31880	588	32464	38804	29680	37208	
4395	0	31572	29160	36441	17984	3197	32256	38792	27396	31920	589	32480	38828	29656	37144	
4396	0	31560	29155	36428	18125	3198	32448	38820	27364	31888	590	32224	38780	29648	37224	
4397	0	31576	29144	36424	17932	3199	32304	38820	27364	31888	591	32240	38780	29648	37224	
4398	0	31568	29144	36432	17941	3200	32256	38776	27364	31920	592	32336	38780	29672	37128	
4399	0	31572	29144	36420	18022	3201	32032	38776	27376	31872	593	32384	38808	29688	37224	
4400	0	31572	29134	36432	18070	3202	32080	38824	27344	31880	594	32416	38796	29632	37192	
4401	0	31596	29140	36434	18144	3203	32304	38800	27356	31888	595	32576	38808	29632	37224	
4402	0	31584	29140	36432	17818	3204	32256	38800	27356	31888	596	33216	38808	29632	37224	
4403	0	31592	29138	36432	17964	3205	32144	38820	27400	31880	597	33024	38800	29720	37176	
4404	0	31588	29130	36432	18006	3206	32320	38832	27352	31904	598	33008	38820	29664	37240	
4405	0	31584	29128	36440	17940	3207	32320	38804	27408	31912	599	33088	38788	29664	37232	
4406	0	31576	29132	36424	18020	3208	32304	38820	27348	31936	600	32864	38820	29688	37232	
4407	0	31580	29132	36425	18084	3209	32304	38820	27348	31936	601	32480	38820	29688	37232	
4408	0	31578	29144	36424	17881	3210	32320	38768	27380	31888	602	32800	38776	29712	37240	
4409	0	31576	29133	36420	18034	3211	32368	38776	27372	31904	603	32704	38800	29640	37184	
4410	0	31560	29136	36432	18018	3212	32384	38820	27372	31912	604	32544	38864	29640	37208	
4411	0	31552	29152	36420	18062	3213	32000	38784	27380	31848	605	32896	38828	29656	37248	
4412	0	31554	29144	36428	17858	3214	32368	38784	27380	31848	606	32048	38820	29680	37248	
4413	0	31560	29132	36440	17884	3215	32192	38784	27384	31904	607	32112	38820	29680	37248	
4414	0	31552	29138	36436	17880	3216	32272	38792	27372	31912	608	32560	38816	29688	37224	
4415	0	31560	29136	36412	17828	3217	32224	38800	27416	31936	609	32400	38812	29696	37176	
4416	0	31556	29128	36416	17791	3218	32128	38832	27392	31880	610	31968	38828	29664	37216	
4417	0	31572	29120	36424	16876	3219	32288	38832	27392	31880	611	32240	38820	29688	37224	
4418	0	31568	29122	36432	16588	3220	32304	38820	27392	31896	612	32528	38820	29688	37224	
4419	0	31576	29144	36440	16547	3221	32144	38796	27388	31912	613	32624	38836	29664	37264	
4420	0	31576	29128	36434	16552	3222	31872	38804	27400	31888	614	32928	38816	29628	37184	
4421	0	31572	29116	36440	16620	3223	32160	38784	27388	31904	615	32976	38792	29656	37224	
4422	0	31568	29132	36460	16556	3224	32224	38784	27388	31904	616	32720	38788	29648	37224	
4423	0	31564	29134	36460	16372	3225	32464	38768	27424	31888	617	32736	38844	29672	37200	
4424	0	31562	29128	36444	16409	3226	32240	38792	27408	31848	618	32928	38844	29672	37200	
4425	0	31562	29128	36466	16434	3227	32192	38744	27388	31928	619	32464	38784	29672	37136	
4426	0	31560	29134	36448	16394	3228	32368	38764	27388	31928	620	32128	38828	29672	37240	
4427	0	31562	29128	36432	16592	3229	32304	38764	27388	31928	621	31792	38800	29656	37216	
4428	0	31568	29128	36432	16481	3230	32240	38776	27416	31928	622	31984	38820	29704	37184	
4429	0	31560	29124	36420	16289	3231	32208	38760	27400	31864	623	32160	38820	29704	37184	
4430	0	31572	29128	36429	16449	3232	32208	38764	27408	31920	624	32736	38908	29688	37168	
4431	0	31584	29120	36432	16430	3233	32176	38836	27416	31912	625	32992	38792	29628	37232	
4432	0	31578	29104	36420	16488	3234	32448	38836	27416	31912	626	33040	38824	29688	37192	
4433	0	31560	29108	36432	16500	3235	32432	38832	27416	31896	627	32912	38816	29648	37224	
4434	0	31578	29100	36440	16603	3236	32272	38772	27408	31928	628	32432	38828	29648	37128	
4435	0	31580	29108	36446	16508	3237	32176	38812	27448	31888	629	32640	38828	29648	37128	
4436	0	31568	29112	36441	16436	3238	32192	38828	27408	31872	630	32320	38844	29664	37208	
4437	0	31560	29120	36448	16580	3239	32160	38828	27408	31872	631	32528	38824	29696	37224	
4438	0	31572	29120	36470	16698	3240	31968	38848	27408	31944	632	32704	38768	29712	37120	
4439	0	31562	29124	36464	16790	3241	32304	38828	27416	31896	633	32832	38808	29696	37256	
4440	0	31552	29106	36436	16630	3242	32032	38824	27372	31904	634	33120	38808	29696	37256	
4441	0	31568	29100	36444	16832	3243	31984	38824	27408	31936	635	33248	38796	29688	37232	
4442	0	31556	29104	36436	16738	3244	32288	38824	27408	31936	636	32864	38844	29672	37176	
4443	0	31552	29112	36444	16818	3245	32320	38860	27416	31928	637	32640	38820	29688	37176	
4444	0	31544	29116	36437	16933	3246	31984	38848	27364	31928	638	32432	38848	29672	37216	
4445	0	31554	29120	36432	16961	3247	32240	38864	27392	31920	639	32048	38788	29712	37240	
4446	0	31556	29114	36410	16748	3248	32192	38876	27380	31920	640	32240	38788	29712	37240	
4447	0	31560	29112	36400	16877	3249	32272	38876	27380	31920	641	32112	38824	29728	37160	
4448	0	31564	29112	36400	17109	3250	32544	38868	27416	31912	642	32352	38800	29728	37216	
4449	0	31572	29104	36400	17141	3251	32240	38864	27384	31920	643	32224	38848	29704	37200	
4450	0	31564	29096	36424	17228	3252	32432	38864	27408	31936	644	32448	38880	29704	37160	
4451	0	31560	29102	36432	17382	3253	32144	38884	27392	31904	645	33008	38880	29704	37160	
4452	0	31566	29114	36424	17269	3254	32176	38884	27392	31904	646	33040	38872	29704	37152	
4453	0	31586	29093	36432	17630	3255	32176	38864	27408	31880	647	33264	38880	29720	37184	
4454	0	31568	29104	36420	18122	3256	32080	38852	27408	31920	648	32848	38880	29680	37224	
4455	0	31564	29120	36396	18161	3257	32032	38876	27432	31928	649	32736	38896	29720	37216	
4456	0	31556	29132	36392	18192	3258	32176	38856	27380	31896	650	32192	38880	29720	37184	
4457	0	31554	29118	36388	18289	3259	32272	38856	27380	31896	651	32240	38880	29720	37184	
4458	0	31564	29109	36392	18376	3260	32384	38852	27400	31912	652	32400	38896	29680	37200	
4459	0	31554	29112	36408	18528	3261	32208	38832	27380	31912	653	32576	38916	29712	37208	
4460	0	31544	29120	36410	18464	3262	32000	38812	27448	31920	654	33248	38872	29760	37168	
4461	0	31546	29120	36404	18453	3263	32176	38868	27432	31896	655	32944	38916	29728	37264	
4462	0	31556	29116	36416	18516	3264	32128	38868	27432	31896	656	32912	38916	29728	37264	
4463	0	31556	29120	36420	18560	3265	32240	38848	27408	31920	657	32784	38924	29736	37184	
4464	0	31570	29124	36424	18732	3266	32144	38840	27416	31904	658	32608	38896	29696	37240	
4465	0	31568	29124	36412	18576	3267	32176	38856	27416	31904	659	32512	38916	29744	37208	
4466	0	31552	29128	36408	18447	3268	32112	38832	27364	31952	660	32176	38904	29720	37232	
4467	0	31560	29132	36412	18684	3269	32496	38832	27364	31952	661	32208	38952	29704	37232	
4468	0	31560	29129	36428	18760	3270	32496	38812	27408	31936	662	32192	38952	29704	37232	
4469	0	31564	29124	36442	18760	3271	32432	38856	27408	31936	663	32240	38932	29752	37168	
4470	0	31560	29121	36448	18900	3272	32240	38828	27388	31944	664	32400	38888	29760	37224	
4471	0	31572	29128	36456	18769	3273	32336	38848	27424	31952	665	32384	38920	29696	37232	
4472	0	31556	29120	36448	18658	3274	32256	38848	27424	31952	666	32656	38908	29760	37224	
4473	0	31552	29124	36416	18856	3275	32336	38812	27416	31912	667	32928	38908	29760	37224	
4474	0	31558	29112	36410	18912	3276	32224	38820	27400	31880	668	32736	38880	29752	37192	
4475	0	31554	29116	36420	19009	3277	32288	38828	27392	31896	669	32832	38912	29728	37232	
4476	0	31564	29114	36432	18872	3278	32208	38828	27392	31896	670	32688	38896	29744	37240	
4477	0	31544	29120	36412	18834	3279	31888	38796	27388	31888	671	32512	38860	29744	37224	
4478	0	31554	29113	36392	18976	3280	32128	38800	27408	31856	672	32480	38916	29720	37232	
4479	0	31556	29120	36386	19052	3281	32224	38812	27328	31904	673	32896	38916	29720	37232	
4480	0	31552	29136	36404	19192	3282	32160	38784	27364	31912	674	33088	38864	29704	37240	
4481	0	31560	29136	36400	18970	3283	32224	38784	27364	31912	675	32896	38844	29744	37240	
4482	0	31548	29140	36418	19064	3284	32352	38820	27336	31904	676	33008	38860	29736	37184	
4483	0	31560	29144	36417	19288	3285	32016	38840	27380	31928	677	33104	38880	29728	37280	
4484	0	31556	29116	36428	19256	3286	32240	38828	27372	31928	678	32992	38880	29728	37280	
4485	0	31552	29108	36457	19272	3287	32176	38776	27424	31904	679	33360	38856	29704	37280	
4486	0	31552	29121	36452	19422	3288	32304	38776	27424	31904	680	32848	38840	29704	37200	
4487	0	31560	29122	36440	19316	3289	32048	38764	27364	31920	681	32416	38824	29656	37208	
4488	0	31566	29120	36438	19276	3290	32288	38804	27364	31904	682	32208	38828	29696	37264	
4489	0	31560	29120	36440	19376	3291	32256	38764	27328	31912	683	32272	38916	29688	37200	
4490	0	31556	29120	36436	19446	3292	32304	38800	27364	31928	684	32336	38916	29688	37200	
4491	0	31565	29120	36440	19473	3293	32416	38800	27364	31928	685	32416	38836	29704	37256	
4492	0	31548	29128	36432	19516	3294	32304	38748	27336	31896	686	32288	38800	29664	37224	
4493	0	31548	29128	36432	19556	3295	32192	38784	27320	31896	687	32288	38836	29672	37224	
4494	0	31556	29114	36436	19532	3296	32128	38764	27372	31872	688	32304	38800	29672	37224	
4495	0	31572	29112	36436	19632	3297	32048	38784	27344	31896	689	32416	38800	29672	37224	
4496	0	31572	29100	36420	19629	3298	32224	38784	27344	31896	690	32336	38824	29672	37176	
4497	0	31572	29104	36420	19540	3299	32240	38772	27364	31912	691	32160	38820	29712	37232	
4498	0	31564	29116	36436	19520	3300	32208	38772	27356	31896	692	32560	38844	29656	37240	
4499	0	31560	29112	36440	19548	3301	32208	38784	27312	31912	693	32720	38896	29688	37224	
4500	0	31564	29116	36444	19688	3302	32208	38816	27256	31928	694	32624	38824	29632	37248	
4501	0	31564	29132	36432	19652	3303	32400	38816	27256	31928	695	32832	38824	29632	37248	
4502	0	31564	29132	36416	19764	3304	32192	38744	27352	31888	696	32896	38892	29664	37216	
4503	0	31576	29116	36432	19584	3305	32288	38772	27352	31848	697	32736	38864	29656	37216	
4504	0	31560	29132	36416	19396	3306	32032	38764	27416	31920	698	32704	38852	29636	37272	
4505	0	31560	29136	36394	19602	3307	32208	38748	27400	31888	699	32800	38844	29664	37248	
4506	0	31556	29128	36412	19565	3308	32512	38748	27400	31888	700	32624	38844	29664	37248	
4507	0	31572	29136	36417	19656	3309	32400	38776	27440	31920	701	32304	38880	29648	37176	
4508	0	31568	29116	36416	19497	3310	32304	38772	27416	31912	702	31904	38800	29648	37240	
4509	0	31564	29116	36420	19448	3311	32192	38772	27448	31928	703	31760	38792	29648	37200	
4510	0	31556	29108	36428	19580	3312	32192	38800	27432	31912	704	32128	38800	29664	37232	
4511	0	31556	29124	36424	19572	3313	32208	38800	27432	31912	705	32416	38864	29680	37200	
4512	0	31577	29110	36436	19670	3314	32192	38792	27400	31928	706	32528	38864	29680	37200	
4513	0	31568	29112	36434	19420	3315	32240	38824	27400	31920	707	32592	38816	29636	37184	
4514	0	31578	29116	36424	19472	3316	32224	38812	27392	31880	708	32800	38872	29620	37240	
4515	0	31576	29105	36442	19521	3317	32192	38772	27392	31880	709	33056	38824	29632	37224	
4516	0	31576	29100	36408	19545	3318	32272	38772	27392	31880	710	32896	38788	29664	37216	
4517	0	31584	29114	36416	19556	3319	32192	38792	27416	31880	711	32480	38788	29664	37216	
4518	0	31588	29096	36428	19586	3320	32224	38780	27416	31880	712	32496	38780	29648	37224	
4519	0	31568	29100	36408	19608	3321	32224	38812	27380	31872	713	32960	38760	29656	37232	
4520	0	31570	29104	36418	19666	3322	32224	38792	27364	31864	714	33056	38864	29696	37208	
4521	0	31576	29110	36410	19337	3323	32160	38792	27364	31864	715	33008	38768	29656	37272	
4522	0	31585	29098	36400	19400	3324	32224	38800	27380	31840	716	33104	38768	29656	37272	
4523	0	31572	29112	36396	19581	3325	31984	38812	27432	31888	717	33088	38808	29648	37256	
4524	0	31584	29120	36424	19536	3326	32160	38828	27380	31872	718	33168	38820	29656	37160	
4525	0	31584	29118	36420	19436	3327	32000	38848	27372	31848	719	33296	38828	29664	37240	
4526	0	31573	29112	36424	19466	3328	32144	38848	27372	31848	720	32336	38800	29672	37112	
4527	0	31564	29112	36432	19500	3329	32480	38820	27424	31824	721	32320	38780	29704	37144	
4528	0	31584	29084	36440	19504	3330	32528	38856	27388	31816	722	31968	38780	29704	37144	
4529	0	31580	29068	36444	19228	3331	32272	38884	27356	31896	723	32224	38824	29696	37240	
4530	0	31588	29086	36420	19336	3332	32192	38872	27388	31872	724	32592	38816	29696	37240	
4531	0	31584	29078	36430	19386	3333	32368	38872	27388	31872	725	32736	38856	29664	37224	
4532	0	31584	29084	36440	19342	3334	32416	38840	27372	31872	726	32544	38816	29720	37248	
4533	0	31588	29080	36440	19524	3335	32400	38852	27344	31872	727	32448	38816	29720	37248	
4534	0	31584	29076	36450	19230	3336	32304	38896	27384	31832	728	32480	38848	29744	37264	
4535	0	31592	29088	36448	19330	3337	31984	38876	27364	31816	729	32656	38844	29696	37240	
4536	0	31592	29092	36440	19368	3338	32016	38876	27364	31816	730	32368	38864	29696	37232	
4537	0	31608	29076	36442	19341	3339	32144	38884	27376	31880	731	32480	38816	29664	37176	
4538	0	31604	29085	36440	19504	3340	32160	38884	27328	31848	732	32624	38852	29672	37256	
4539	0	31612	29086	36448	19510	3341	32032	38872	27344	31840	733	32448	38852	29672	37256	
4540	0	31604	29080	36444	19174	3342	31936	38864	27344	31832	734	32528	38880	29712	37224	
4541	0	31602	29080	36452	19129	3343	31984	38864	27344	31832	735	32320	38908	29704	37240	
4542	0	31608	29076	36432	19080	3344	32400	38876	27364	31888	736	32432	38896	29672	37248	
4543	0	31616	29076	36440	19034	3345	32368	38876	27352	31872	737	32576	38888	29680	37256	
4544	0	31618	29076	36436	19068	3346	32144	38912	27328	31888	738	32672	38888	29680	37256	
4545	0	31604	29096	36436	19120	3347	32288	38900	27320	31848	739	32608	38896	29712	37184	
4546	0	31604	29088	36448	19064	3348	32192	38900	27320	31848	740	32384	38892	29672	37248	
4547	0	31612	29092	36440	19014	3349	32544	38860	27312	31840	741	32240	38864	29688	37280	
4548	0	31596	29096	36430	19066	3350	32304	38876	27352	31880	742	32352	38896	29656	37336	
4549	0	31616	29084	36424	19204	3351	32144	38864	27364	31864	743	32480	38880	29688	37304	
4550	0	31620	29076	36428	18910	3352	32368	38884	27348	31872	744	32544	38880	29688	37304	
4551	0	31618	29088	36424	18952	3353	32192	38884	27348	31872	745	32656	38872	29696	37288	
4552	0	31612	29112	36436	19142	3354	32256	38880	27280	31904	746	32656	38912	29696	37296	
4553	0	31600	29108	36456	19232	3355	32320	38868	27296	31888	747	32592	38868	29672	37280	
4554	0	31604	29104	36476	19116	3356	31984	38876	27356	31864	748	32800	38900	29680	37304	
4555	0	31600	29096	36452	19162	3357	32256	38800	27288	31904	749	32912	38900	29680	37304	
4556	0	31604	29088	36460	19236	3358	31888	38800	27288	31904	750	32832	38956	29664	37280	
4557	0	31604	29088	36454	19304	3359	32224	38840	27304	31888	751	32768	38908	29696	37280	
4558	0	31601	29072	36444	19148	3360	32144	38864	27328	31848	752	32752	38904	29696	37304	
4559	0	31588	29088	36428	19198	3361	32032	38876	27320	31888	753	32704	38904	29680	37272	
4560	0	31584	29088	36420	19340	3362	32176	38856	27328	31864	754	32512	38952	29672	37328	
4561	0	31572	29088	36424	19354	3363	32272	38856	27328	31864	755	32720	38952	29672	37328	
4562	0	31580	29092	36434	19518	3364	32080	38820	27312	31888	756	32480	38916	29644	37248	
4563	0	31574	29096	36432	19522	3365	32336	38840	27328	31912	757	32960	38904	29672	37288	
4564	0	31564	29100	36452	19546	3366	32320	38832	27320	31888	758	32768	38904	29696	37256	
4565	0	31568	29090	36456	19486	3367	32208	38848	27320	31944	759	32576	38900	29672	37272	
4566	0	31580	29096	36460	19468	3368	32448	38848	27320	31944	760	32400	38900	29672	37272	
4567	0	31584	29092	36452	19683	3369	32320	38840	27348	31952	761	32384	38896	29672	37352	
4568	0	31588	29088	36456	19704	3370	32224	38832	27312	31904	762	32592	38844	29664	37296	
4569	0	31576	29092	36436	19796	3371	32240	38804	27328	31896	763	32768	38912	29664	37224	
4570	0	31568	29096	36444	19774	3372	32192	38804	27340	31928	764	32816	38864	29664	37256	
4571	0	31576	29104	36432	19664	3373	32288	38804	27340	31928	765	32800	38864	29632	37304	
4572	0	31560	29090	36440	19838	3374	32224	38800	27320	31904	766	32736	38864	29632	37304	
4573	0	31552	29088	36432	19874	3375	32336	38820	27352	31944	767	33040	38916	29648	37336	
4574	0	31564	29104	36456	20004	3376	32192	38812	27296	31936	768	32928	38852	29664	37304	
4575	0	31556	29106	36448	19904	3377	32112	38792	27320	31912	769	32656	38880	29656	37312	
4576	0	31544	29108	36434	19818	3378	32016	38792	27320	31912	770	32448	38864	29628	37272	
4577	0	31544	29104	36432	19988	3379	32464	38748	27304	31952	771	32272	38864	29628	37272	
4578	0	31556	29109	36440	19992	3380	32256	38764	27376	31936	772	32192	38816	29632	37288	
4579	0	31556	29112	36432	19868	3381	32160	38832	27296	31864	773	32304	38868	29632	37280	
4580	0	31560	29108	36456	19944	3382	32064	38764	27304	31904	774	32240	38872	29664	37256	
4581	0	31552	29101	36454	20076	3383	32192	38764	27304	31904	775	32480	38816	29696	37280	
4582	0	31548	29116	36452	20198	3384	32224	38796	27328	31912	776	32496	38836	29656	37240	
4583	0	31544	29116	36448	19960	3385	31968	38804	27336	31920	777	32480	38836	29656	37240	
4584	0	31536	29118	36456	20114	3386	32224	38756	27328	31928	778	32464	38856	29664	37296	
4585	0	31532	29124	36456	20052	3387	32208	38756	27328	31928	779	32608	38804	29672	37280	
4586	0	31528	29133	36444	20272	3388	32288	38804	27384	31952	780	32384	38832	29608	37240	
4587	0	31532	29136	36440	19968	3389	32448	38828	27344	31928	781	32416	38828	29656	37200	
4588	0	31548	29124	36424	20125	3390	32240	38768	27380	31952	782	32752	38828	29656	37200	
4589	0	31548	29120	36384	20281	3391	32480	38780	27380	31968	783	32720	38824	29640	37224	
4590	0	31544	29124	36384	20110	3392	32384	38780	27380	31968	784	32944	38888	29656	37256	
4591	0	31552	29132	36400	20240	3393	32320	38728	27364	31904	785	33360	38816	29672	37256	
4592	0	31552	29130	36416	20216	3394	32160	38764	27344	31928	786	33152	38800	29656	37232	
4593	0	31556	29128	36410	20292	3395	32304	38784	27304	31888	787	32704	38864	29664	37208	
4594	0	31560	29116	36428	20361	3396	32064	38800	27260	31888	788	32752	38864	29664	37208	
4595	0	31552	29132	36444	20056	3397	31936	38800	27260	31888	789	32592	38808	29656	37216	
4596	0	31552	29114	36442	20114	3398	32272	38800	27320	31888	790	32352	38844	29640	37184	
4597	0	31564	29120	36456	20204	3399	32032	38772	27400	31856	791	32304	38844	29640	37264	
4598	0	31565	29120	36440	20160	3400	32288	38764	27432	31880	792	32400	38800	29672	37208	
4599	0	31574	29120	36440	20088	3401	32288	38744	27480	31896	793	32784	38800	29672	37208	
4600	0	31592	29128	36452	20104	3402	32448	38744	27480	31896	794	32704	38828	29648	37216	
4601	0	31584	29104	36456	20177	3403	32448	38772	27472	31904	795	32576	38832	29640	37208	
4602	0	31576	29104	36428	20216	3404	32224	38756	27424	31952	796	32656	38796	29656	37248	
4603	0	31576	29102	36456	20096	3405	32032	38748	27472	31888	797	32912	38836	29680	37208	
4604	0	31576	29124	36468	20106	3406	32288	38772	27456	31896	798	32816	38820	29644	37224	
4605	0	31568	29120	36452	20128	3407	32160	38772	27456	31896	799	32624	38820	29644	37224	
4606	0	31573	29122	36452	20208	3408	32304	38800	27448	31904	800	32464	38768	29628	37264	
4607	0	31568	29114	36452	19924	3409	32128	38812	27432	31888	801	32240	38836	29656	37216	
4608	0	31561	29112	36465	20052	3410	32496	38832	27440	31912	802	32400	38800	29628	37240	
4609	0	31560	29112	36464	20109	3411	32224	38796	27440	31928	803	32416	38808	29640	37200	
4610	0	31562	29108	36432	20134	3412	32272	38796	27440	31928	804	32432	38808	29640	37200	
4611	0	31572	29096	36433	19900	3413	32224	38772	27432	31912	805	32368	38780	29656	37240	
4612	0	31578	29098	36432	19898	3414	32256	38792	27424	31944	806	32544	38824	29680	37240	
4613	0	31598	29080	36404	20024	3415	32048	38820	27424	31896	807	32528	38872	29632	37264	
4614	0	31592	29088	36424	20069	3416	32224	38824	27472	31920	808	32688	38820	29664	37232	
4615	0	31596	29086	36416	20050	3417	32128	38824	27472	31920	809	32512	38820	29664	37232	
4616	0	31604	29084	36416	19848	3418	32384	38800	27448	31888	810	32400	38872	29672	37096	
4617	0	31593	29090	36452	19990	3419	32352	38812	27432	31904	811	32176	38896	29680	37208	
4618	0	31592	29100	36476	19984	3420	32176	38804	27424	31904	812	32528	38792	29712	37112	
4619	0	31582	29104	36476	20000	3421	32432	38820	27424	31896	813	32416	38852	29688	37224	
4620	0	31580	29108	36478	20002	3422	32272	38820	27424	31896	814	32688	38792	29696	37224	
4621	0	31590	29096	36472	19816	3423	31984	38792	27460	31912	815	32736	38792	29696	37224	
4622	0	31594	29068	36472	19728	3424	32080	38804	27424	31896	816	33056	38888	29680	37152	
4623	0	31596	29084	36480	19948	3425	32208	38796	27440	31864	817	33216	38796	29704	37200	
4624	0	31594	29068	36476	19904	3426	32352	38804	27432	31872	818	32960	38824	29680	37224	
4625	0	31588	29076	36474	19956	3427	32176	38804	27432	31872	819	32864	38844	29648	37192	
4626	0	31596	29077	36480	20074	3428	32256	38856	27424	31912	820	32656	38844	29648	37192	
4627	0	31588	29082	36472	20073	3429	32208	38824	27440	31880	821	32512	38816	29712	37160	
4628	0	31592	29086	36486	19824	3430	32496	38792	27400	31872	822	32704	38816	29680	37208	
4629	0	31592	29097	36488	19863	3431	32432	38780	27424	31912	823	32736	38792	29720	37232	
4630	0	31596	29092	36500	19994	3432	32480	38780	27424	31912	824	32704	38864	29704	37208	
4631	0	31581	29090	36492	20030	3433	32256	38796	27424	31936	825	32544	38828	29688	37192	
4632	0	31580	29088	36506	20006	3434	32368	38816	27400	31904	826	32448	38828	29688	37192	
4633	0	31592	29068	36508	19958	3435	32048	38848	27408	31928	827	32448	38820	29704	37168	
4634	0	31592	29070	36502	20048	3436	32176	38820	27440	31888	828	32464	38792	29712	37136	
4635	0	31580	29078	36486	19824	3437	32304	38820	27440	31888	829	32544	38820	29712	37208	
4636	0	31564	29092	36506	19784	3438	32176	38800	27432	31896	830	32816	38872	29696	37240	
4637	0	31560	29104	36498	19866	3439	32320	38824	27424	31944	831	32432	38872	29696	37240	
4638	0	31560	29102	36490	19956	3440	32048	38812	27456	31888	832	32448	38856	29656	37136	
4639	0	31568	29088	36476	19980	3441	32000	38820	27440	31872	833	32144	38800	29680	37224	
4640	0	31561	29084	36472	19852	3442	31872	38820	27440	31872	834	31936	38872	29712	37200	
4641	0	31568	29088	36488	19944	3443	32128	38840	27416	31920	835	32144	38852	29696	37232	
4642	0	31568	29100	36490	20016	3444	32096	38816	27440	31904	836	32224	38788	29704	37200	
4643	0	31560	29096	36512	20040	3445	32192	38836	27432	31920	837	32672	38788	29704	37200	
4644	0	31560	29100	36514	19748	3446	32192	38840	27392	31920	838	32832	38824	29696	37160	
4645	0	31564	29100	36512	19780	3447	32272	38840	27392	31920	839	32704	38836	29688	37256	
4646	0	31560	29097	36472	19868	3448	32384	38856	27400	31888	840	32304	38888	29696	37168	
4647	0	31572	29088	36474	19984	3449	32448	38816	27440	31896	841	32368	38788	29704	37232	
4648	0	31556	29092	36488	19858	3450	32368	38820	27400	31896	842	32336	38788	29704	37232	
4649	0	31562	29088	36484	19972	3451	32304	38784	27408	31912	843	32448	38788	29744	37216	
4650	0	31556	29108	36464	19969	3452	32304	38784	27408	31912	844	33040	38788	29688	37256	
4651	0	31560	29100	36464	19792	3453	32432	38800	27416	31904	845	33232	38828	29704	37240	
4652	0	31548	29108	36436	19986	3454	32160	38828	27416	31904	846	32784	38860	29704	37216	
4653	0	31554	29116	36433	19965	3455	32496	38820	27384	31896	847	33152	38836	29720	37120	
4654	0	31552	29124	36458	19968	3456	32144	38820	27416	31920	848	33632	38836	29720	37120	
4655	0	31552	29108	36488	20106	3457	32144	38820	27416	31920	849	33488	38868	29672	37216	
4656	0	31548	29096	36464	19928	3458	32480	38820	27372	31896	850	33440	38816	29680	37216	
4657	0	31560	29112	36460	20066	3459	32256	38812	27392	31904	851	33344	38808	29648	37232	
4658	0	31550	29092	36468	20210	3460	32128	38840	27400	31912	852	32640	38856	29728	37208	
4659	0	31560	29096	36452	20232	3461	32192	38800	27380	31904	853	32224	38856	29728	37208	
4660	0	31562	29084	36460	20362	3462	32096	38800	27380	31904	854	32480	38880	29680	37224	
4661	0	31546	29096	36456	20212	3463	32336	38792	27376	31880	855	32592	38872	29664	37232	
4662	0	31552	29112	36444	20186	3464	32176	38824	27416	31880	856	32544	38880	29680	37224	
4663	0	31554	29128	36432	20264	3465	32128	38788	27404	31888	857	32656	38836	29712	37240	
4664	0	31548	29120	36424	20330	3466	32368	38812	27400	31920	858	32400	38800	29680	37248	
4665	0	31540	29121	36408	20318	3467	32112	38812	27400	31920	859	32320	38800	29680	37248	
4666	0	31560	29116	36416	20364	3468	32288	38824	27364	31896	860	32288	38808	29704	37264	
4667	0	31560	29114	36424	20480	3469	32336	38800	27344	31888	861	32192	38816	29696	37240	
4668	0	31556	29111	36420	20280	3470	32432	38864	27344	31896	862	32240	38844	29680	37160	
4669	0	31552	29108	36428	20273	3471	32480	38768	27352	31928	863	32208	38828	29720	37272	
4670	0	31544	29108	36436	20324	3472	32256	38768	27352	31928	864	32096	38828	29720	37272	
4671	0	31540	29112	36442	20329	3473	32368	38784	27404	31904	865	32192	38820	29680	37248	
4672	0	31536	29100	36424	20413	3474	32352	38792	27392	31904	866	32368	38852	29720	37208	
4673	0	31528	29104	36436	20316	3475	32224	38808	27408	31928	867	32560	38872	29680	37256	
4674	0	31528	29101	36440	20209	3476	32144	38792	27416	31920	868	32400	38808	29704	37280	
4675	0	31536	29104	36448	20309	3477	32000	38792	27416	31920	869	32672	38836	29688	37248	
4676	0	31529	29102	36428	20256	3478	32256	38812	27448	31904	870	32528	38836	29688	37248	
4677	0	31544	29104	36440	20344	3479	32144	38856	27432	31928	871	32576	38784	29704	37240	
4678	0	31556	29100	36448	20432	3480	32128	38812	27400	31864	872	33040	38836	29688	37296	
4679	0	31556	29100	36440	20181	3481	32192	38812	27432	31872	873	33120	38816	29680	37248	
4680	0	31560	29096	36440	20247	3482	32112	38812	27432	31872	874	33008	38848	29688	37272	
4681	0	31554	29104	36424	20309	3483	32208	38792	27408	31912	875	32896	38848	29688	37272	
4682	0	31556	29112	36408	20364	3484	32288	38800	27372	31864	876	32576	38828	29672	37256	
4683	0	31546	29124	36412	20536	3485	32224	38840	27372	31864	877	32992	38816	29680	37248	
4684	0	31556	29112	36404	20184	3486	32112	38772	27348	31872	878	33216	38856	29696	37280	
4685	0	31548	29104	36428	20177	3487	32256	38772	27348	31872	879	32880	38808	29672	37256	
4686	0	31548	29108	36412	20360	3488	32336	38840	27364	31896	880	32480	38860	29680	37272	
4687	0	31546	29105	36420	20388	3489	32400	38792	27356	31896	881	32304	38860	29680	37272	
4688	0	31556	29116	36428	20378	3490	32368	38840	27364	31936	882	32448	38856	29680	37280	
4689	0	31552	29116	36416	20314	3491	32688	38832	27364	31944	883	32528	38864	29712	37272	
4690	0	31562	29105	36432	20302	3492	32496	38832	27364	31944	884	32496	38844	29728	37256	
4691	0	31564	29108	36408	20328	3493	32304	38824	27364	31928	885	33072	38856	29672	37264	
4692	0	31569	29096	36416	20308	3494	32288	38812	27356	31920	886	32944	38856	29672	37264	
4693	0	31592	29096	36400	20082	3495	32112	38792	27328	31936	887	32400	38824	29712	37304	
4694	0	31596	29096	36408	20032	3496	32160	38776	27380	31912	888	31968	38824	29728	37280	
4695	0	31592	29104	36400	19976	3497	32064	38776	27380	31912	889	32192	38780	29728	37232	
4696	0	31584	29104	36404	19958	3498	31984	38776	27352	31928	890	32480	38828	29656	37304	
4697	0	31588	29102	36408	19970	3499	31936	38848	27372	31928	891	32320	38768	29696	37240	
4698	0	31592	29112	36394	20026	3500	32352	38848	27356	31960	892	32432	38768	29696	37240	
4699	0	31588	29116	36396	19840	3501	32224	38848	27360	31888	893	32816	38808	29680	37272	
4700	0	31600	29124	36396	19880	3502	32144	38848	27360	31888	894	32528	38844	29664	37264	
4701	0	31596	29130	36372	19917	3503	32304	38820	27336	31880	895	32672	38872	29696	37256	
4702	0	31596	29140	36400	19984	3504	32336	38848	27288	31960	896	32848	38836	29728	37240	
4703	0	31594	29120	36416	19936	3505	32144	38784	27356	31912	897	32864	38836	29728	37240	
4704	0	31596	29132	36410	19948	3506	32320	38784	27356	31912	898	33136	38852	29704	37264	
4705	0	31592	29116	36429	19632	3507	32448	38872	27280	31960	899	32800	38860	29696	37288	
4706	0	31598	29112	36428	19716	3508	32672	38848	27336	31904	900	32704	38816	29696	37248	
4707	0	31596	29128	36408	19654	3509	32240	38840	27328	31888	901	32368	38852	29696	37280	
4708	0	31588	29120	36408	19664	3510	32464	38812	27356	31888	902	32416	38852	29696	37280	
4709	0	31588	29116	36408	19644	3511	32288	38812	27356	31888	903	32368	38832	29696	37200	
4710	0	31596	29120	36412	19794	3512	32304	38812	27372	31952	904	32352	38836	29688	37224	
4711	0	31586	29113	36436	19718	3513	32336	38832	27400	31976	905	32544	38828	29672	37280	
4712	0	31580	29128	36424	19654	3514	31984	38828	27356	31912	906	31936	38848	29688	37240	
4713	0	31580	29120	36410	19464	3515	32432	38836	27392	31952	907	31920	38816	29680	37248	
4714	0	31576	29124	36418	19332	3516	32272	38836	27392	31952	908	32368	38816	29680	37248	
4715	0	31568	29124	36440	19358	3517	32176	38824	27336	31952	909	32688	38840	29680	37256	
4716	0	31584	29132	36456	19382	3518	32096	38832	27352	31968	910	32816	38856	29696	37256	
4717	0	31584	29112	36456	19388	3519	32272	38856	27356	31944	911	32432	38844	29720	37256	
4718	0	31584	29124	36440	19394	3520	32288	38832	27352	31928	912	32864	38824	29720	37312	
4719	0	31588	29112	36434	19472	3521	32256	38832	27352	31928	913	33040	38824	29720	37312	
4720	0	31592	29108	36428	19256	3522	31872	38868	27364	31912	914	33200	38836	29712	37280	
4721	0	31584	29112	36442	19144	3523	32096	38884	27384	31896	915	33136	38816	29664	37280	
4722	0	31556	29118	36468	19316	3524	32160	38856	27356	31944	916	32832	38888	29656	37328	
4723	0	31568	29100	36452	19392	3525	32016	38828	27348	31952	917	32736	38864	29712	37296	
4724	0	31588	29108	36452	19332	3526	32272	38828	27348	31952	918	32896	38860	29720	37264	
4725	0	31592	29080	36468	19513	3527	32288	38856	27360	31896	919	32928	38860	29720	37264	
4726	0	31584	29084	36468	19256	3528	32416	38868	27352	31888	920	32480	38900	29712	37280	
4727	0	31564	29100	36460	19464	3529	32432	38852	27344	31920	921	31952	38864	29744	37256	
4728	0	31568	29102	36464	19500	3530	32512	38864	27384	31912	922	32016	38868	29768	37248	
4729	0	31584	29096	36448	19568	3531	32288	38864	27384	31912	923	32352	38828	29720	37240	
4730	0	31576	29096	36444	19305	3532	32112	38832	27384	31912	924	32272	38828	29720	37240	
4731	0	31560	29104	36462	19468	3533	32320	38848	27400	31936	925	32096	38896	29696	37240	
4732	0	31573	29088	36444	19488	3534	32336	38848	27328	31888	926	32240	38864	29696	37280	
4733	0	31572	29100	36428	19484	3535	32288	38868	27316	31904	927	32752	38864	29744	37256	
4734	0	31564	29088	36416	19604	3536	32096	38868	27316	31904	928	32816	38836	29736	37272	
4735	0	31560	29096	36416	19482	3537	32064	38824	27368	31928	929	32656	38848	29704	37264	
4736	0	31570	29090	36408	19390	3538	32352	38876	27364	31904	930	32528	38848	29704	37264	
4737	0	31568	29092	36424	19565	3539	32000	38856	27384	31952	931	32448	38872	29696	37288	
4738	0	31580	29082	36432	19504	3540	32240	38848	27328	31944	932	32272	38864	29720	37280	
4739	0	31560	29092	36436	19598	3541	32160	38848	27328	31944	933	32656	38864	29696	37312	
4740	0	31580	29092	36464	19615	3542	32176	38872	27360	31928	934	32976	38872	29728	37272	
4741	0	31568	29090	36448	19442	3543	32304	38836	27364	31896	935	32928	38872	29728	37272	
4742	0	31572	29085	36466	19497	3544	32256	38868	27340	31912	936	33344	38812	29720	37232	
4743	0	31572	29102	36484	19624	3545	32288	38840	27352	31912	937	33520	38832	29712	37272	
4744	0	31568	29101	36464	19604	3546	32304	38840	27352	31912	938	33296	38872	29688	37248	
4745	0	31576	29106	36456	19609	3547	32224	38860	27380	31960	939	32864	38816	29680	37280	
4746	0	31560	29116	36448	19462	3548	32176	38864	27348	31912	940	32288	38860	29736	37200	
4747	0	31560	29120	36460	19560	3549	32128	38856	27392	31920	941	32096	38860	29736	37200	
4748	0	31580	29120	36456	19550	3550	32224	38828	27376	31928	942	32112	38852	29696	37296	
4749	0	31584	29108	36444	19630	3551	32464	38828	27376	31928	943	32336	38864	29720	37256	
4750	0	31584	29108	36440	19644	3552	32096	38864	27352	31944	944	32176	38888	29704	37248	
4751	0	31576	29116	36444	19408	3553	32416	38876	27320	31920	945	32368	38872	29696	37264	
4752	0	31584	29114	36446	19573	3554	32304	38832	27336	31904	946	32368	38872	29696	37264	
4753	0	31570	29112	36460	19496	3555	32208	38832	27344	31928	947	32496	38864	29688	37240	
4754	0	31588	29104	36484	19476	3556	32128	38832	27344	31928	948	32592	38852	29744	37216	
4755	0	31572	29109	36496	19546	3557	32160	38856	27320	31912	949	32576	38876	29696	37280	
4756	0	31573	29108	36500	19424	3558	32272	38840	27372	31904	950	32480	38868	29736	37224	
4757	0	31572	29112	36484	19312	3559	32128	38864	27356	31920	951	32816	38880	29736	37256	
4758	0	31568	29112	36480	19396	3560	32160	38840	27380	31896	952	33168	38880	29736	37256	
4759	0	31572	29104	36482	19456	3561	32384	38840	27380	31896	953	33296	38916	29720	37280	
4760	0	31572	29104	36476	19486	3562	32352	38856	27364	31904	954	33168	38924	29720	37296	
4761	0	31576	29108	36488	19520	3563	32448	38848	27372	31936	955	32576	38904	29696	37248	
4762	0	31576	29104	36502	19517	3564	32224	38868	27388	31912	956	31824	38884	29712	37296	
4763	0	31576	29122	36477	19372	3565	32272	38832	27400	31952	957	31920	38884	29712	37296	
4764	0	31580	29108	36464	19478	3566	32272	38832	27400	31952	958	32176	38816	29720	37224	
4765	0	31581	29104	36472	19464	3567	32000	38804	27360	31928	959	32368	38872	29728	37248	
4766	0	31584	29104	36460	19484	3568	32352	38820	27348	31952	960	32720	38800	29704	37240	
4767	0	31588	29112	36481	19240	3569	32432	38864	27372	31912	961	32928	38828	29672	37264	
4768	0	31580	29116	36480	19401	3570	32352	38804	27336	31928	962	33152	38888	29712	37248	
4769	0	31584	29104	36484	19396	3571	32336	38804	27336	31928	963	33088	38888	29712	37248	
4770	0	31580	29106	36464	19366	3572	32320	38828	27408	31888	964	32928	38804	29696	37264	
4771	0	31584	29104	36468	19484	3573	32416	38856	27364	31928	965	32592	38888	29712	37288	
4772	0	31588	29098	36465	19449	3574	32256	38856	27356	31880	966	32624	38912	29720	37256	
4773	0	31576	29104	36456	19220	3575	32304	38864	27336	31920	967	33168	38908	29720	37328	
4774	0	31580	29092	36475	19100	3576	32288	38864	27336	31920	968	33120	38908	29720	37328	
4775	0	31576	29116	36466	19250	3577	32240	38832	27392	31896	969	32992	38868	29736	37280	
4776	0	31568	29113	36464	19268	3578	32272	38840	27384	31904	970	32816	38852	29712	37248	
4777	0	31572	29116	36444	19298	3579	32160	38820	27424	31912	971	32320	38852	29672	37304	
4778	0	31580	29102	36440	19217	3580	32112	38848	27416	31928	972	32240	38888	29720	37264	
4779	0	31580	29116	36432	19144	3581	32160	38848	27416	31928	973	32176	38860	29688	37288	
4780	0	31580	29116	36438	19328	3582	32128	38844	27400	31976	974	32304	38860	29688	37288	
4781	0	31580	29104	36448	19396	3583	32144	38840	27356	31928	975	32352	38792	29728	37240	
4782	0	31580	29108	36456	19386	3584	32224	38856	27384	31944	976	32352	38888	29712	37264	
4783	0	31584	29108	36453	19392	3585	32064	38832	27336	31904	977	32352	38888	29712	37288	
4784	0	31580	29120	36464	19501	3586	32128	38832	27336	31904	978	32560	38860	29712	37296	
4785	0	31584	29112	36458	19428	3587	32096	38848	27392	31888	979	32160	38860	29712	37296	
4786	0	31580	29108	36444	19419	3588	32160	38792	27448	31912	980	32352	38872	29696	37272	
4787	0	31596	29100	36452	19322	3589	32192	38820	27424	31904	981	32512	38880	29752	37312	
4788	0	31586	29112	36460	19520	3590	32416	38832	27424	31928	982	32784	38860	29720	37304	
4789	0	31588	29104	36440	19534	3591	32448	38832	27424	31928	983	32688	38880	29712	37280	
4790	0	31584	29116	36440	19618	3592	32416	38800	27448	31936	984	32832	38908	29688	37288	
4791	0	31584	29120	36405	19480	3593	32176	38812	27448	31952	985	32736	38908	29688	37288	
4792	0	31584	29128	36424	19524	3594	32064	38820	27424	31944	986	32736	38904	29728	37272	
4793	0	31584	29112	36444	19720	3595	32288	38848	27416	31896	987	32688	38876	29728	37216	
4794	0	31584	29110	36460	19772	3596	32400	38848	27416	31896	988	32784	38824	29736	37264	
4795	0	31592	29120	36492	19912	3597	32304	38868	27408	31904	989	32528	38828	29712	37240	
4796	0	31580	29118	36500	19638	3598	32400	38856	27408	31960	990	32512	38828	29712	37240	
4797	0	31584	29120	36500	19778	3599	32256	38832	27408	31952	991	32544	38792	29720	37288	
4798	0	31596	29116	36505	19908	3600	32144	38824	27416	31912	992	32480	38872	29752	37288	
4799	0	31580	29112	36472	19988	3601	32464	38824	27416	31912	993	32592	38872	29728	37280	
4800	0	31596	29096	36484	20046	3602	32192	38808	27392	31928	994	32544	38872	29768	37280	
4801	0	31604	29104	36484	19944	3603	32448	38824	27432	31936	995	32752	38896	29712	37280	
4802	0	31600	29100	36506	20156	3604	32176	38776	27440	31912	996	32800	38896	29712	37280	
4803	0	31596	29109	36500	20224	3605	32448	38812	27416	31952	997	33024	38792	29736	37272	
4804	0	31580	29112	36464	20312	3606	32176	38812	27416	31952	998	33008	38888	29776	37264	
4805	0	31592	29114	36448	20290	3607	32112	38820	27432	31984	999	32704	38796	29736	37328	
4806	0	31584	29112	36448	20196	3608	32144	38840	27408	31872	1000	32032	38828	29712	37256	
4807	0	31592	29109	36456	20352	3609	32416	38812	27408	31904	1001	31568	38828	29712	37256	
4808	0	31598	29116	36456	20376	3610	32272	38812	27408	31904	1002	31904	38860	29728	37208	
4809	0	31588	29124	36456	20460	3611	32272	38848	27384	31896	1003	32368	38884	29744	37240	
4810	0	31588	29124	36474	20346	3612	32224	38812	27416	31968	1004	32752	38824	29712	37264	
4811	0	31592	29128	36472	20218	3613	32160	38860	27392	31968	1005	32704	38864	29720	37320	
4812	0	31592	29113	36472	20256	3614	32160	38832	27372	31960	1006	32544	38864	29720	37320	
4813	0	31596	29112	36464	20406	3615	32256	38832	27372	31960	1007	32768	38852	29752	37280	
4814	0	31608	29116	36484	20441	3616	32192	38792	27408	31920	1008	32928	38904	29704	37272	
4815	0	31594	29100	36484	20436	3617	32176	38812	27416	31936	1009	33136	38808	29712	37272	
4816	0	31604	29096	36468	20324	3618	32192	38848	27372	31944	1010	32560	38856	29728	37248	
4817	0	31604	29105	36464	20344	3619	32368	38840	27372	31936	1011	32784	38832	29760	37264	
4818	0	31592	29101	36472	20448	3620	32176	38840	27372	31936	1012	32752	38832	29760	37264	
4819	0	31601	29112	36480	20592	3621	32160	38804	27392	31936	1013	33040	38860	29720	37280	
4820	0	31608	29120	36468	20522	3622	32240	38832	27364	31912	1014	32880	38880	29696	37280	
4821	0	31616	29106	36448	20685	3623	32256	38832	27360	31936	1015	32912	38804	29736	37328	
4822	0	31620	29106	36464	20516	3624	32352	38848	27408	31912	1016	33072	38852	29768	37304	
4823	0	31612	29100	36456	20604	3625	32128	38848	27408	31912	1017	32752	38852	29768	37304	
4824	0	31616	29112	36464	20837	3626	32224	38832	27348	31912	1018	32464	38796	29704	37248	
4825	0	31602	29108	36483	20784	3627	32352	38828	27384	31944	1019	32272	38816	29720	37240	
4826	0	31600	29108	36464	20867	3628	32496	38764	27384	31904	1020	32144	38788	29784	37264	
4827	0	31608	29112	36476	21000	3629	32256	38804	27336	31904	1021	32064	38804	29736	37296	
4828	0	31600	29100	36476	20700	3630	32352	38804	27336	31904	1022	32048	38788	29696	37312	
4829	0	31608	29100	36472	20906	3631	32368	38832	27404	31936	1023	32176	38788	29696	37312	
4830	0	31596	29090	36478	20952	3632	32256	38804	27384	31896	1024	32528	38844	29728	37240	
4831	0	31604	29080	36468	20981	3633	32288	38840	27352	31928	1025	32928	38872	29688	37288	
4832	0	31589	29080	36468	20975	3634	32048	38840	27408	31928	1026	32736	38816	29704	37256	
4833	0	31584	29092	36480	21160	3635	32000	38840	27408	31928	1027	32240	38856	29728	37272	
4834	0	31572	29088	36489	21292	3636	32240	38832	27380	31904	1028	32672	38856	29728	37272	
4835	0	31572	29086	36480	20996	3637	32256	38812	27380	31928	1029	33072	38880	29720	37304	
4836	0	31574	29084	36488	21046	3638	32224	38848	27392	31920	1030	33312	38800	29720	37248	
4837	0	31584	29084	36464	21190	3639	32080	38824	27416	31960	1031	33008	38856	29720	37288	
4838	0	31576	29104	36456	21252	3640	32224	38824	27416	31960	1032	32720	38812	29728	37280	
4839	0	31588	29092	36444	21372	3641	32112	38804	27392	31928	1033	32528	38844	29752	37304	
4840	0	31602	29100	36456	21300	3642	32096	38812	27400	31952	1034	32672	38844	29752	37304	
4841	0	31592	29100	36452	21326	3643	32288	38812	27400	31888	1035	32848	38824	29736	37248	
4842	0	31600	29088	36476	21458	3644	31952	38804	27400	31904	1036	32080	38816	29752	37288	
4843	0	31600	29092	36484	21532	3645	32224	38804	27400	31904	1037	32416	38780	29744	37264	
4844	0	31588	29088	36476	21600	3646	32336	38860	27408	31928	1038	32624	38828	29728	37280	
4845	0	31584	29098	36480	21402	3647	32160	38792	27408	31920	1039	32672	38828	29728	37280	
4846	0	31592	29105	36488	21544	3648	32336	38800	27392	31920	1040	32544	38844	29736	37232	
4847	0	31592	29100	36484	21506	3649	32224	38820	27360	31880	1041	32432	38732	29736	37264	
4848	0	31584	29096	36488	21564	3650	32496	38820	27360	31880	1042	32624	38844	29728	37288	
4849	0	31584	29100	36477	21356	3651	32416	38828	27400	31904	1043	32624	38824	29696	37224	
4850	0	31588	29088	36488	21546	3652	32544	38848	27372	31928	1044	32864	38856	29736	37240	
4851	0	31594	29096	36472	21544	3653	32400	38868	27396	31912	1045	32992	38856	29736	37240	
4852	0	31596	29101	36478	21590	3654	32000	38856	27364	31936	1046	32944	38768	29752	37240	
4853	0	31592	29108	36486	21435	3655	32304	38856	27364	31936	1047	32272	38792	29760	37288	
4854	0	31588	29108	36480	21518	3656	32224	38800	27364	31912	1048	31920	38856	29760	37240	
4855	0	31597	29096	36464	21614	3657	32080	38824	27392	31936	1049	32272	38808	29720	37288	
4856	0	31588	29092	36484	21510	3658	32160	38840	27364	31904	1050	32000	38808	29720	37288	
4857	0	31592	29102	36480	21472	3659	32176	38820	27408	31928	1051	32112	38832	29720	37248	
4858	0	31596	29108	36472	21532	3660	32208	38820	27408	31928	1052	32688	38864	29704	37256	
4859	0	31584	29104	36472	21612	3661	31952	38868	27400	31912	1053	32704	38796	29728	37240	
4860	0	31592	29106	36456	21626	3662	32064	38836	27320	31888	1054	32736	38800	29752	37272	
4861	0	31594	29104	36464	21406	3663	31872	38832	27424	31872	1055	32896	38872	29752	37296	
4862	0	31594	29098	36460	21506	3664	32128	38804	27424	31928	1056	33088	38872	29752	37296	
4863	0	31600	29090	36448	21490	3665	32160	38804	27424	31928	1057	33328	38828	29752	37320	
4864	0	31616	29096	36453	21618	3666	32112	38864	27372	31888	1058	33312	38808	29752	37240	
4865	0	31624	29088	36456	21392	3667	32448	38848	27432	31936	1059	32992	38796	29752	37264	
4866	0	31624	29100	36457	21448	3668	32400	38856	27380	31936	1060	32784	38852	29744	37320	
4867	0	31612	29100	36449	21504	3669	32320	38848	27376	31960	1061	32528	38852	29744	37320	
4868	0	31604	29108	36456	21546	3670	32432	38848	27376	31960	1062	32320	38864	29728	37264	
4869	0	31614	29098	36448	21672	3671	32224	38812	27400	31920	1063	32272	38844	29728	37288	
4870	0	31616	29093	36448	21356	3672	32496	38828	27392	31928	1064	32256	38800	29752	37256	
4871	0	31616	29094	36496	21468	3673	32336	38836	27344	31936	1065	32496	38840	29728	37248	
4872	0	31608	29112	36488	21532	3674	32352	38832	27396	31928	1066	32432	38844	29712	37256	
4873	0	31620	29096	36493	21204	3675	32448	38832	27396	31928	1067	32352	38844	29712	37256	
4874	0	31605	29109	36476	21405	3676	32144	38800	27388	31912	1068	32544	38868	29736	37288	
4875	0	31600	29104	36468	21340	3677	32032	38828	27384	31920	1069	32560	38864	29728	37280	
4876	0	31604	29108	36456	21356	3678	32272	38828	27388	31920	1070	32352	38856	29744	37248	
4877	0	31600	29116	36452	21408	3679	32048	38836	27396	31920	1071	32608	38852	29720	37296	
4878	0	31600	29116	36448	21150	3680	32240	38836	27396	31920	1072	32672	38852	29720	37296	
4879	0	31600	29104	36480	21344	3681	32240	38832	27424	31944	1073	33024	38880	29728	37312	
4880	0	31604	29116	36480	21268	3682	32272	38888	27424	31928	1074	33232	38812	29728	37272	
4881	0	31600	29110	36480	21344	3683	32096	38832	27356	31944	1075	32960	38816	29736	37296	
4882	0	31612	29108	36492	21156	3684	32192	38816	27396	31944	1076	32464	38888	29728	37256	
4883	0	31612	29100	36480	21204	3685	32096	38816	27396	31944	1077	32784	38856	29704	37304	
4884	0	31608	29108	36481	21212	3686	32272	38836	27336	31936	1078	32544	38856	29704	37304	
4885	0	31616	29102	36468	21436	3687	32256	38796	27376	31936	1079	32336	38888	29744	37296	
4886	0	31615	29096	36476	21248	3688	32400	38848	27396	31912	1080	32576	38908	29736	37256	
4887	0	31600	29106	36480	21090	3689	32416	38856	27416	32016	1081	32176	38836	29736	37280	
4888	0	31608	29124	36480	21180	3690	32208	38856	27416	32016	1082	32320	38832	29704	37224	
4889	0	31600	29112	36474	21197	3691	32304	38836	27448	31944	1083	32704	38832	29704	37224	
4890	0	31608	29118	36458	21290	3692	32256	38836	27380	31992	1084	32848	38872	29776	37320	
4891	0	31610	29128	36460	21196	3693	32128	38796	27388	31992	1085	33216	38836	29736	37272	
4892	0	31605	29116	36452	21024	3694	32320	38868	27400	31936	1086	32800	38860	29712	37280	
4893	0	31612	29120	36449	21240	3695	32384	38868	27400	31936	1087	32384	38888	29704	37328	
4894	0	31612	29112	36481	21180	3696	32224	38840	27364	31992	1088	32640	38888	29712	37320	
4895	0	31606	29112	36488	20920	3697	32128	38820	27344	31944	1089	32336	38888	29712	37320	
4896	0	31616	29110	36500	20534	3698	32192	38840	27380	32024	1090	32384	38864	29696	37288	
4897	0	31612	29120	36512	20436	3699	32336	38856	27372	32000	1091	32336	38888	29752	37256	
4898	0	31617	29124	36496	20412	3700	32272	38856	27372	32000	1092	32640	38872	29744	37272	
4899	0	31616	29116	36488	20322	3701	32208	38792	27388	31984	1093	32704	38904	29752	37272	
4900	0	31601	29110	36492	20508	3702	32048	38828	27400	31944	1094	32592	38904	29752	37272	
4901	0	31600	29112	36472	20385	3703	32240	38804	27380	31960	1095	32352	38868	29768	37248	
4902	0	31596	29116	36476	20337	3704	32096	38828	27424	32000	1096	32544	38864	29752	37296	
4903	0	31594	29112	36464	20408	3705	32128	38828	27424	32000	1097	32672	38912	29752	37248	
4904	0	31589	29112	36470	20396	3706	32272	38812	27392	31960	1098	32560	38864	29720	37280	
4905	0	31592	29104	36464	20234	3707	32176	38796	27392	31928	1099	32320	38864	29720	37280	
4906	0	31596	29118	36480	20386	3708	32464	38824	27408	31968	1100	32560	38888	29760	37296	
4907	0	31588	29112	36488	20428	3709	32224	38792	27396	31968	1101	32736	38872	29752	37272	
4908	0	31588	29104	36492	20400	3710	32288	38792	27396	31968	1102	33008	38844	29736	37312	
4909	0	31592	29100	36456	20216	3711	32224	38848	27392	31952	1103	32912	38808	29752	37232	
4910	0	31576	29108	36448	20164	3712	32368	38800	27408	31976	1104	32736	38880	29800	37256	
4911	0	31573	29112	36452	20304	3713	32368	38824	27408	31992	1105	32592	38880	29800	37256	
4912	0	31592	29120	36456	20264	3714	32288	38832	27364	31968	1106	32256	38880	29792	37264	
4913	0	31584	29114	36468	20274	3715	32368	38832	27364	31968	1107	32480	38888	29768	37272	
4914	0	31596	29128	36472	20193	3716	32336	38784	27400	32008	1108	32576	38844	29752	37256	
4915	0	31598	29120	36457	19984	3717	32192	38756	27372	31936	1109	33088	38872	29736	37248	
4916	0	31602	29130	36464	20186	3718	32112	38836	27440	32000	1110	33152	38872	29736	37248	
4917	0	31596	29134	36444	20185	3719	32064	38836	27440	32000	1111	31984	38884	29728	37232	
4918	0	31592	29128	36444	20214	3720	32384	38824	27408	31984	1112	31392	38896	29768	37232	
4919	0	31600	29132	36464	20241	3721	32096	38824	27408	31960	1113	32000	38904	29800	37256	
4920	0	31600	29116	36464	19868	3722	32224	38784	27440	31976	1114	32416	38836	29736	37288	
4921	0	31600	29120	36476	20110	3723	32336	38792	27440	31944	1115	32832	38788	29760	37200	
4922	0	31602	29124	36492	20014	3724	32320	38792	27440	31944	1116	32400	38788	29760	37200	
4923	0	31602	29124	36492	20065	3725	32448	38848	27416	31960	1117	32864	38836	29776	37224	
4924	0	31592	29122	36512	19992	3726	32032	38804	27392	32008	1118	32928	38864	29760	37240	
4925	0	31600	29124	36516	20024	3727	32224	38796	27424	31936	1119	32800	38880	29776	37272	
4926	0	31592	29124	36500	20034	3728	32336	38836	27432	31888	1120	32592	38908	29792	37240	
4927	0	31596	29136	36506	20146	3729	32480	38836	27432	31888	1121	32640	38908	29792	37240	
4928	0	31600	29128	36476	19908	3730	32544	38796	27408	31968	1122	32560	38872	29776	37272	
4929	0	31608	29110	36472	19928	3731	32496	38832	27360	31960	1123	32976	38896	29792	37256	
4930	0	31612	29114	36472	20123	3732	32160	38804	27396	31984	1124	32640	38820	29800	37240	
4931	0	31620	29104	36488	20049	3733	32128	38824	27456	31920	1125	32368	38816	29776	37256	
4932	0	31616	29112	36468	20116	3734	32112	38824	27456	31920	1126	32320	38896	29796	37264	
4933	0	31620	29109	36472	19973	3735	32160	38828	27408	31912	1127	32752	38896	29796	37264	
4934	0	31608	29101	36478	19904	3736	32240	38816	27432	31896	1128	32784	38884	29776	37240	
4935	0	31604	29104	36464	20050	3737	32336	38864	27448	31928	1129	32544	38844	29736	37240	
4936	0	31600	29120	36472	20067	3738	32240	38836	27464	31928	1130	32368	38856	29800	37288	
4937	0	31596	29111	36448	20166	3739	32096	38836	27464	31928	1131	32640	38824	29768	37288	
4938	0	31600	29120	36432	19897	3740	32240	38848	27408	31912	1132	32656	38824	29768	37288	
4939	0	31602	29128	36420	20008	3741	32064	38820	27424	31952	1133	32800	38796	29768	37264	
4940	0	31624	29120	36428	20128	3742	32528	38792	27440	31928	1134	32736	38828	29784	37200	
4941	0	31620	29106	36452	20098	3743	32224	38820	27416	31952	1135	32816	38860	29768	37208	
4942	0	31608	29100	36458	20244	3744	32272	38820	27416	31952	1136	32688	38896	29760	37280	
4943	0	31620	29100	36486	20020	3745	32320	38820	27448	31944	1137	32560	38852	29728	37288	
4944	0	31612	29104	36492	20072	3746	32160	38812	27416	31912	1138	32704	38852	29728	37288	
4945	0	31600	29101	36480	20096	3747	32144	38804	27384	31928	1139	32880	38828	29752	37256	
4946	0	31596	29104	36492	20174	3748	32272	38820	27392	31912	1140	33056	38836	29800	37280	
4947	0	31596	29112	36476	20268	3749	32416	38820	27392	31912	1141	32800	38784	29760	37288	
4948	0	31604	29109	36464	19960	3750	32336	38808	27424	31952	1142	32656	38844	29776	37320	
4949	0	31606	29104	36458	20140	3751	32352	38848	27416	31944	1143	32848	38844	29776	37320	
4950	0	31600	29096	36474	20184	3752	32352	38820	27400	31944	1144	32464	38856	29776	37256	
4951	0	31596	29096	36500	20204	3753	32368	38800	27432	31920	1145	32400	38828	29760	37280	
4952	0	31588	29104	36490	20024	3754	32272	38800	27432	31920	1146	32352	38836	29792	37288	
4953	0	31584	29100	36472	20178	3755	32192	38792	27408	31928	1147	32208	38888	29760	37240	
4954	0	31592	29088	36484	20152	3756	32224	38856	27400	31912	1148	32096	38888	29784	37256	
4955	0	31604	29092	36480	20172	3757	32112	38840	27416	31872	1149	32448	38888	29784	37256	
4956	0	31600	29084	36466	19896	3758	32272	38792	27372	31920	1150	32304	38832	29752	37240	
4957	0	31608	29088	36496	19944	3759	32336	38792	27372	31920	1151	32384	38816	29736	37232	
4958	0	31604	29104	36496	20024	3760	32080	38792	27404	31920	1152	32272	38788	29736	37248	
4959	0	31601	29088	36492	20096	3761	32096	38776	27408	31952	1153	32688	38864	29736	37248	
4960	0	31598	29086	36484	19992	3762	31904	38816	27392	31920	1154	32480	38864	29736	37248	
4961	0	31608	29097	36488	20156	3763	32032	38856	27372	31928	1155	32464	38828	29736	37264	
4962	0	31596	29104	36464	20200	3764	32400	38856	27372	31928	1156	32496	38888	29752	37280	
4963	0	31592	29092	36476	20268	3765	32240	38844	27400	31952	1157	32656	38860	29744	37264	
4964	0	31602	29092	36472	20398	3766	31936	38832	27392	31944	1158	32704	38872	29736	37248	
4965	0	31604	29094	36485	20526	3767	32256	38856	27400	31936	1159	32912	38824	29720	37240	
4966	0	31612	29092	36512	20296	3768	32224	38840	27364	31936	1160	32976	38824	29720	37240	
4967	0	31608	29088	36488	20616	3769	32432	38840	27364	31936	1161	32960	38864	29760	37240	
4968	0	31616	29088	36492	20637	3770	32400	38820	27392	31960	1162	32592	38844	29752	37272	
4969	0	31604	29093	36484	20720	3771	32320	38840	27364	31912	1163	32640	38800	29736	37240	
4970	0	31608	29105	36484	20600	3772	32256	38840	27392	31920	1164	33216	38796	29720	37248	
4971	0	31600	29096	36498	20532	3773	32272	38856	27400	31976	1165	33328	38796	29720	37248	
4972	0	31604	29106	36504	20562	3774	32272	38856	27400	31976	1166	33088	38836	29752	37272	
4973	0	31600	29112	36512	20480	3775	32256	38876	27328	31928	1167	32880	38820	29768	37272	
4974	0	31601	29112	36504	20529	3776	32176	38820	27432	31992	1168	32784	38844	29776	37280	
4975	0	31596	29112	36480	20540	3777	32192	38848	27416	31952	1169	32512	38808	29760	37288	
4976	0	31596	29116	36504	20932	3778	32128	38828	27432	31960	1170	32288	38864	29736	37240	
4977	0	31592	29120	36468	21114	3779	32032	38828	27432	31960	1171	32144	38864	29736	37240	
4978	0	31589	29106	36472	21438	3780	32272	38828	27392	31936	1172	32384	38844	29736	37240	
4979	0	31596	29104	36448	21420	3781	32080	38832	27416	31936	1173	32304	38868	29720	37264	
4980	0	31616	29104	36456	21711	3782	31872	38840	27400	31952	1174	32080	38820	29736	37304	
4981	0	31626	29100	36488	21636	3783	32080	38836	27408	31928	1175	32224	38856	29720	37288	
4982	0	31632	29096	36480	21748	3784	32224	38836	27408	31928	1176	32656	38856	29720	37288	
4983	0	31628	29097	36478	21816	3785	32368	38840	27384	31928	1177	32928	38816	29704	37304	
4984	0	31624	29088	36488	21652	3786	32096	38832	27424	31944	1178	32656	38864	29704	37256	
4985	0	31620	29098	36480	21690	3787	32240	38864	27368	31968	1179	32752	38800	29752	37304	
4986	0	31620	29098	36476	21760	3788	32208	38888	27356	31992	1180	32448	38864	29688	37256	
4987	0	31616	29108	36457	21936	3789	32336	38888	27356	31992	1181	32384	38828	29720	37264	
4988	0	31620	29112	36460	21656	3790	32416	38840	27440	31960	1182	32416	38828	29720	37264	
4989	0	31632	29093	36441	21922	3791	32336	38840	27408	31976	1183	32464	38836	29704	37232	
4990	0	31640	29093	36432	21914	3792	32288	38848	27424	31944	1184	32224	38824	29760	37240	
4991	0	31632	29100	36424	21992	3793	32272	38880	27400	31984	1185	32528	38816	29736	37264	
4992	0	31637	29092	36436	22106	3794	32368	38880	27400	31984	1186	32400	38788	29712	37288	
4993	0	31624	29096	36457	21896	3795	32368	38884	27416	31984	1187	32608	38788	29712	37288	
4994	0	31636	29096	36468	22020	3796	32192	38856	27440	31976	1188	33184	38896	29752	37264	
4995	0	31632	29108	36452	22048	3797	32064	38872	27424	32000	1189	33488	38856	29776	37200	
4996	0	31632	29096	36454	22188	3798	32192	38832	27432	31992	1190	33040	38836	29744	37248	
4997	0	31644	29104	36460	21928	3799	32176	38832	27432	31992	1191	32528	38888	29792	37272	
4998	0	31640	29104	36456	21972	3800	32128	38868	27432	31976	1192	32192	38888	29792	37272	
4999	0	31638	29116	36448	22148	3801	32192	38848	27432	31952	1193	31696	38864	29760	37240	
5000	0	31636	29100	36452	22145	3802	32288	38848	27432	31952	1194	31744	38904	29752	37256	
5001	0	31632	29108	36460	22372	3803	32176	38860	27400	31968	1195	32496	38880	29712	37232	
5002	0	31640	29112	36468	22172	3804	32048	38860	27400	31968	1196	32688	38868	29768	37216	
5003	0	31628	29100	36472	22202	3805	32240	38868	27448	31952	1197	32560	38816	29752	37264	
5004	0	31640	29092	36480	22260	3806	32128	38876	27416	31928	1198	32848	38816	29752	37264	
5005	0	31640	29110	36480	22320	3807	32352	38856	27400	31968	1199	32816	38864	29752	37264	
5006	0	31652	29100	36488	22396	3808	32272	38856	27416	31960	1200	32608	38852	29768	37264	
5007	0	31650	29108	36488	22240	3809	32400	38856	27416	31960	1201	32528	38844	29776	37272	
5008	0	31648	29112	36476	22426	3810	32384	38868	27456	31968	1202	32352	38888	29776	37288	
5009	0	31644	29098	36468	22460	3811	32224	38832	27416	31952	1203	32512	38888	29776	37288	
5010	0	31636	29098	36456	22473	3812	32128	38820	27400	31944	1204	32784	38960	29784	37280	
5011	0	31628	29116	36448	22468	3813	32448	38872	27432	31952	1205	32864	38840	29800	37304	
5012	0	31632	29120	36458	22574	3814	32304	38872	27432	31952	1206	33136	38904	29776	37288	
5013	0	31620	29110	36448	22312	3815	32288	38848	27424	31960	1207	32960	38916	29752	37272	
5014	0	31634	29112	36456	22462	3816	32032	38856	27432	32024	1208	32768	38908	29728	37248	
5015	0	31632	29120	36464	22500	3817	32080	38840	27456	31968	1209	32416	38908	29728	37248	
5016	0	31624	29136	36468	22636	3818	32208	38868	27440	31928	1210	32560	38880	29768	37240	
5017	0	31624	29132	36480	22762	3819	32256	38868	27440	31928	1211	32496	38880	29784	37248	
5018	0	31628	29144	36476	22612	3820	32320	38832	27384	31968	1212	32688	38852	29792	37232	
5019	0	31636	29125	36460	22660	3821	32080	38856	27408	31976	1213	32928	38888	29784	37280	
5020	0	31640	29120	36452	22714	3822	32064	38848	27388	31928	1214	32848	38888	29784	37280	
5021	0	31648	29124	36425	22890	3823	32016	38848	27388	31928	1215	32464	38824	29784	37192	
5022	0	31634	29128	36420	22780	3824	32288	38856	27448	31968	1216	32496	38888	29784	37296	
5023	0	31616	29132	36432	22800	3825	32256	38784	27424	31944	1217	32528	38836	29736	37280	
5024	0	31630	29120	36434	22894	3826	32080	38828	27416	31920	1218	32592	38888	29768	37248	
5025	0	31630	29106	36472	23020	3827	32064	38840	27424	31952	1219	32656	38880	29792	37288	
5026	0	31630	29110	36464	22986	3828	32384	38840	27424	31952	1220	32400	38880	29792	37288	
5027	0	31644	29120	36472	23142	3829	32368	38808	27384	31936	1221	32304	38880	29792	37256	
5028	0	31636	29120	36480	23152	3830	32384	38836	27432	31928	1222	32528	38912	29792	37280	
5029	0	31632	29136	36474	23056	3831	32240	38832	27432	31968	1223	32368	38904	29792	37264	
5030	0	31624	29120	36452	23040	3832	32304	38856	27424	31944	1224	32576	38836	29828	37272	
5031	0	31626	29136	36448	23178	3833	32512	38856	27424	31944	1225	32864	38836	29828	37272	
5032	0	31616	29126	36458	23256	3834	32208	38820	27424	31976	1226	32544	38848	29720	37304	
5033	0	31610	29133	36464	23356	3835	32272	38820	27416	31976	1227	32912	38880	29776	37304	
5034	0	31604	29132	36468	23454	3836	32144	38820	27392	31976	1228	32496	38888	29792	37296	
5035	0	31609	29126	36468	23184	3837	32128	38804	27424	31920	1229	32736	38904	29768	37256	
5036	0	31620	29132	36436	23324	3838	32496	38804	27424	31920	1230	32576	38800	29728	37272	
5037	0	31612	29128	36440	23344	3839	32160	38864	27392	31960	1231	32688	38800	29728	37272	
5038	0	31632	29120	36440	23408	3840	32272	38864	27408	31952	1232	32640	38872	29768	37304	
5039	0	31616	29136	36456	23512	3841	32224	38828	27424	31944	1233	32544	38864	29760	37264	
5040	0	31620	29113	36456	23252	3842	31984	38840	27400	31984	1234	32592	38860	29776	37272	
5041	0	31624	29134	36472	23438	3843	32176	38840	27400	31984	1235	32432	38900	29760	37376	
5042	0	31604	29116	36482	23356	3844	32272	38820	27424	31960	1236	32608	38900	29760	37376	
5043	0	31602	29116	36480	23512	3845	32048	38856	27368	32000	1237	32656	38836	29784	37344	
5044	0	31612	29120	36492	23384	3846	32160	38832	27400	31992	1238	32736	38860	29752	37296	
5045	0	31592	29125	36498	23348	3847	32144	38836	27356	31952	1239	32688	38880	29800	37232	
5046	0	31596	29128	36472	23448	3848	32256	38836	27356	31952	1240	32640	38888	29776	37256	
5047	0	31596	29116	36488	23432	3849	32432	38812	27380	32000	1241	32784	38852	29744	37280	
5048	0	31592	29118	36484	23618	3850	32496	38840	27380	31968	1242	32528	38852	29744	37280	
5049	0	31600	29108	36492	23445	3851	32224	38792	27416	31984	1243	32480	38880	29760	37272	
5050	0	31600	29104	36480	23419	3852	32336	38836	27424	31920	1244	32416	38876	29776	37328	
5051	0	31592	29094	36474	23488	3853	32336	38836	27424	31920	1245	32432	38808	29784	37296	
5052	0	31596	29112	36464	23456	3854	32224	38860	27380	31992	1246	32336	38872	29784	37336	
5053	0	31602	29112	36460	23528	3855	32368	38812	27320	31952	1247	32208	38872	29784	37336	
5054	0	31596	29109	36458	23446	3856	32048	38840	27352	31968	1248	32432	38856	29792	37280	
5055	0	31590	29120	36454	23428	3857	31984	38840	27376	31984	1249	32208	38816	29760	37240	
5056	0	31594	29120	36448	23477	3858	32192	38840	27376	31984	1250	32096	38828	29768	37304	
5057	0	31592	29121	36456	23480	3859	32208	38848	27384	32016	1251	32384	38836	29760	37296	
5058	0	31584	29120	36440	23362	3860	32160	38820	27344	31968	1252	32576	38852	29776	37312	
5059	0	31580	29120	36440	23381	3861	32112	38808	27344	31984	1253	32720	38852	29776	37312	
5060	0	31596	29116	36472	23490	3862	31968	38828	27408	31920	1254	32720	38856	29760	37304	
5061	0	31612	29108	36456	23448	3863	32256	38828	27408	31920	1255	32896	38836	29792	37304	
5062	0	31632	29100	36460	23436	3864	32336	38812	27392	31936	1256	32976	38924	29768	37336	
5063	0	31620	29092	36460	23456	3865	32288	38828	27364	32008	1257	33632	38872	29768	37240	
5064	0	31616	29098	36452	23428	3866	32112	38788	27396	32000	1258	33872	38872	29768	37240	
5065	0	31616	29114	36460	23580	3867	32304	38816	27352	31952	1259	33424	38788	29776	37272	
5066	0	31616	29104	36460	23316	3868	32416	38816	27352	31952	1260	33008	38808	29736	37320	
5067	0	31612	29109	36448	23428	3869	32288	38832	27328	31968	1261	32736	38808	29752	37288	
5068	0	31608	29128	36448	23516	3870	32288	38784	27388	32000	1262	32704	38816	29792	37256	
5069	0	31596	29120	36476	23456	3871	32288	38812	27364	31984	1263	32512	38844	29736	37264	
5070	0	31606	29116	36476	23684	3872	32256	38848	27352	31976	1264	32448	38844	29736	37264	
5071	0	31608	29100	36476	23476	3873	32464	38848	27352	31976	1265	32400	38856	29760	37312	
5072	0	31616	29096	36464	23628	3874	32288	38808	27352	31968	1266	32160	38876	29752	37240	
5073	0	31624	29108	36468	23546	3875	32144	38836	27344	31968	1267	32016	38864	29752	37256	
5074	0	31629	29100	36480	23576	3876	31888	38864	27392	31960	1268	32000	38864	29784	37248	
5075	0	31636	29092	36480	23568	3877	31968	38784	27380	31944	1269	32416	38864	29784	37248	
5076	0	31622	29081	36468	23388	3878	32368	38784	27380	31944	1270	32448	38788	29768	37272	
5077	0	31640	29081	36456	23452	3879	32448	38804	27400	31960	1271	32208	38864	29744	37248	
5078	0	31640	29088	36456	23478	3880	32240	38812	27372	31984	1272	32320	38856	29752	37280	
5079	0	31632	29096	36452	23584	3881	32048	38800	27388	31992	1273	32384	38824	29736	37264	
5080	0	31624	29098	36464	23544	3882	32176	38820	27348	31976	1274	32672	38900	29728	37312	
5081	0	31624	29094	36452	23400	3883	32320	38820	27348	31976	1275	32576	38900	29728	37312	
5082	0	31628	29105	36448	23532	3884	32128	38820	27364	31944	1276	32592	38880	29736	37248	
5083	0	31620	29104	36452	23436	3885	31872	38884	27372	31912	1277	32688	38796	29736	37240	
5084	0	31610	29104	36449	23584	3886	32112	38832	27364	31936	1278	32704	38820	29736	37232	
5085	0	31640	29104	36456	23656	3887	32080	38864	27320	31976	1279	32256	38828	29752	37248	
5086	0	31640	29096	36476	23520	3888	32288	38864	27320	31976	1280	32368	38828	29752	37248	
5087	0	31636	29094	36482	23436	3889	32304	38872	27356	31992	1281	32384	38788	29752	37288	
5088	0	31652	29106	36464	23512	3890	32384	38824	27364	32000	1282	32368	38856	29776	37264	
5089	0	31640	29100	36442	23588	3891	32240	38856	27356	31928	1283	32528	38872	29768	37216	
5090	0	31628	29108	36448	23518	3892	32112	38856	27364	31928	1284	32832	38852	29728	37224	
5091	0	31630	29100	36448	23676	3893	32256	38856	27364	31928	1285	32816	38880	29760	37272	
5092	0	31636	29096	36444	23688	3894	32224	38876	27424	31968	1286	32256	38880	29760	37272	
5093	0	31642	29108	36456	23620	3895	32400	38876	27356	31936	1287	32448	38864	29736	37280	
5094	0	31636	29102	36472	23636	3896	32176	38840	27372	31968	1288	32976	38808	29752	37272	
5095	0	31644	29104	36469	23684	3897	32192	38820	27392	31944	1289	33120	38844	29752	37216	
5096	0	31624	29116	36464	23884	3898	32432	38820	27392	31944	1290	33040	38852	29728	37272	
5097	0	31624	29098	36460	23652	3899	32400	38848	27360	31976	1291	32768	38852	29728	37272	
5098	0	31628	29096	36472	23576	3900	32224	38816	27416	31960	1292	32448	38808	29760	37288	
5099	0	31644	29100	36476	23640	3901	32032	38848	27408	31976	1293	32384	38904	29768	37288	
5100	0	31648	29104	36468	23652	3902	32096	38836	27408	31984	1294	32320	38856	29712	37176	
5101	0	31640	29104	36458	23744	3903	32352	38836	27408	31984	1295	32400	38880	29752	37296	
5102	0	31632	29110	36452	23796	3904	32176	38840	27372	31920	1296	32480	38880	29752	37296	
5103	0	31644	29108	36476	23842	3905	32416	38812	27372	32000	1297	32640	38916	29752	37248	
5104	0	31624	29109	36482	23708	3906	32176	38792	27344	31984	1298	32656	38908	29744	37304	
5105	0	31636	29116	36492	23722	3907	32064	38804	27392	31936	1299	33040	38852	29752	37280	
5106	0	31632	29096	36501	23762	3908	32448	38804	27392	31936	1300	33152	38844	29744	37256	
5107	0	31628	29104	36496	23828	3909	32336	38816	27372	31976	1301	32320	38824	29768	37296	
5108	0	31616	29106	36484	23906	3910	32384	38820	27416	32016	1302	32208	38824	29768	37296	
5109	0	31624	29116	36472	23908	3911	32288	38832	27380	31968	1303	32624	38844	29736	37280	
5110	0	31624	29104	36460	23764	3912	32080	38848	27392	32000	1304	32848	38844	29736	37256	
5111	0	31620	29100	36462	23912	3913	32352	38848	27392	32000	1305	33088	38816	29736	37272	
5112	0	31616	29096	36468	23874	3914	32432	38860	27388	31944	1306	32800	38836	29792	37224	
5113	0	31616	29104	36470	23896	3915	32272	38792	27356	31992	1307	32656	38836	29792	37224	
